concept_id,target_domain,target_variables,source_datasets,source_fields,join_rule,aggregation_rule,transform_id,transform_parameters,implementation,sdtm_oak_version,unit_conversion_version,reviewer,reviewed_at,records_created
AE_CORE,AE,STUDYID,ae_raw,ae_raw.STUDY,,,assign_no_ct,[],sdtm.oak::assign_no_ct,0.2.0,,portfolio_demo_reviewer,2026-09-02T09:42:56Z,8
AE_CORE,AE,DOMAIN,,,,,hardcode_no_ct,"{""value"":""AE""}",sdtm.oak::hardcode_no_ct,0.2.0,,portfolio_demo_reviewer,2026-09-02T09:42:56Z,8
AE_CORE,AE,USUBJID,ae_raw,ae_raw.STUDY | ae_raw.PATNUM,,,derive_usubjid,"{""separator"":""-""}",TraceSDTM::derive_usubjid,,,portfolio_demo_reviewer,2026-09-02T09:42:56Z,8
AE_DATES,AE,AESTDTC,ae_raw,ae_raw.IT.AESTDAT,,,to_iso8601_date,"{""formats"":[""m/d/y"",""dd-mmm-yyyy"",""y-m-d""]}",sdtm.oak::create_iso8601,0.2.0,,portfolio_demo_reviewer,2026-09-02T09:42:57Z,8
AE_DATES,AE,AEENDTC,ae_raw,ae_raw.IT.AEENDAT,,,to_iso8601_date,"{""formats"":[""m/d/y"",""dd-mmm-yyyy"",""y-m-d""]}",sdtm.oak::create_iso8601,0.2.0,,portfolio_demo_reviewer,2026-09-02T09:42:57Z,8
AE_DATES,AE,AEENRF,ae_raw,ae_raw.IT.AEENDAT,,,derive_ongoing_flag,"{""ongoing_value"":""ONGOING"",""affirmative_values"":[""Y"",""Yes""]}",TraceSDTM::derive_ongoing_flag,,,portfolio_demo_reviewer,2026-09-02T09:42:57Z,8
AE_DATES,AE,AESTDY,,,,,derive_study_day,"{""target_date"":""AESTDTC"",""reference_date"":""RFSTDTC""}",sdtm.oak::derive_study_day,0.2.0,,portfolio_demo_reviewer,2026-09-02T09:42:57Z,8
AE_DATES,AE,AEENDY,,,,,derive_study_day,"{""target_date"":""AEENDTC"",""reference_date"":""RFSTDTC""}",sdtm.oak::derive_study_day,0.2.0,,portfolio_demo_reviewer,2026-09-02T09:42:57Z,8
AE_REL_OUTCOME,AE,AEREL,ae_raw,ae_raw.IT.AEREL,,,assign_ct,"{""codelist_id"":""AEREL""}",sdtm.oak::assign_ct,0.2.0,,portfolio_demo_reviewer,2026-09-02T09:42:57Z,8
AE_REL_OUTCOME,AE,AEOUT,ae_raw,ae_raw.AEOUTCOME,,,assign_ct,"{""codelist_id"":""AEOUT""}",sdtm.oak::assign_ct,0.2.0,,portfolio_demo_reviewer,2026-09-02T09:42:57Z,8
AE_SAFETY,AE,AESEV,ae_raw,ae_raw.IT.AESEV,,,assign_ct,"{""codelist_id"":""AESEV""}",sdtm.oak::assign_ct,0.2.0,,portfolio_demo_reviewer,2026-09-02T09:42:57Z,8
AE_SAFETY,AE,AESER,ae_raw,ae_raw.IT.AESER,,,assign_ct,"{""codelist_id"":""NY""}",sdtm.oak::assign_ct,0.2.0,,portfolio_demo_reviewer,2026-09-02T09:42:57Z,8
AE_SAFETY,AE,AESHOSP,ae_raw,ae_raw.IT.AESHOSP,,,assign_ct,"{""codelist_id"":""NY""}",sdtm.oak::assign_ct,0.2.0,,portfolio_demo_reviewer,2026-09-02T09:42:57Z,8
AE_SEQUENCE,AE,AESEQ,,,,,derive_sequence,"{""record_variables"":[""STUDYID"",""USUBJID"",""AESTDTC"",""AETERM"",""AEDECOD"","".SOURCE_ROW""],""start_at"":1}",sdtm.oak::derive_seq,0.2.0,,portfolio_demo_reviewer,2026-09-02T09:42:57Z,8
AE_TERMS,AE,AETERM,ae_raw,ae_raw.IT.AETERM,,,assign_no_ct,[],sdtm.oak::assign_no_ct,0.2.0,,portfolio_demo_reviewer,2026-09-02T09:42:57Z,8
AE_TERMS,AE,AEDECOD,ae_raw,ae_raw.AEDECOD,,,assign_no_ct,[],sdtm.oak::assign_no_ct,0.2.0,,portfolio_demo_reviewer,2026-09-02T09:42:57Z,8
AE_TERMS,AE,AEBODSYS,ae_raw,ae_raw.AEBODSYS,,,normalize_case,"{""case"":""upper""}",TraceSDTM::normalize_case,,,portfolio_demo_reviewer,2026-09-02T09:42:57Z,8
DM_CORE,DM,STUDYID,dm_raw,dm_raw.STUDY,,,assign_no_ct,[],sdtm.oak::assign_no_ct,0.2.0,,portfolio_demo_reviewer,2026-09-02T09:42:57Z,6
DM_CORE,DM,DOMAIN,,,,,hardcode_no_ct,"{""value"":""DM""}",sdtm.oak::hardcode_no_ct,0.2.0,,portfolio_demo_reviewer,2026-09-02T09:42:57Z,6
DM_CORE,DM,USUBJID,dm_raw,dm_raw.STUDY | dm_raw.PATNUM,,,derive_usubjid,"{""separator"":""-""}",TraceSDTM::derive_usubjid,,,portfolio_demo_reviewer,2026-09-02T09:42:57Z,6
DM_CORE,DM,SUBJID,dm_raw,dm_raw.PATNUM,,,assign_no_ct,[],sdtm.oak::assign_no_ct,0.2.0,,portfolio_demo_reviewer,2026-09-02T09:42:57Z,6
DM_CORE,DM,SITEID,dm_raw,dm_raw.PATNUM,,,extract_delimited_part,"{""separator"":""-"",""position"":1}",TraceSDTM::extract_delimited_part,,,portfolio_demo_reviewer,2026-09-02T09:42:57Z,6
DM_DATES,DM,RFSTDTC,dm_raw,dm_raw.FIRST_DOSE_DT,,,to_iso8601_date,"{""formats"":[""m/d/y"",""dd-mmm-yyyy"",""y-m-d""]}",sdtm.oak::create_iso8601,0.2.0,,portfolio_demo_reviewer,2026-09-02T09:42:57Z,6
DM_DATES,DM,RFICDTC,dm_raw,dm_raw.IC_DT,,,to_iso8601_date,"{""formats"":[""m/d/y"",""dd-mmm-yyyy"",""y-m-d""]}",sdtm.oak::create_iso8601,0.2.0,,portfolio_demo_reviewer,2026-09-02T09:42:57Z,6
DM_DEMOGRAPHICS,DM,AGE,dm_raw,dm_raw.IT.AGE,,,assign_no_ct,[],sdtm.oak::assign_no_ct,0.2.0,,portfolio_demo_reviewer,2026-09-02T09:42:57Z,6
DM_DEMOGRAPHICS,DM,AGEU,,,,,hardcode_ct,"{""value"":""YEARS"",""codelist_id"":""AGEU""}",sdtm.oak::hardcode_ct,0.2.0,,portfolio_demo_reviewer,2026-09-02T09:42:57Z,6
DM_DEMOGRAPHICS,DM,SEX,dm_raw,dm_raw.IT.SEX,,,assign_ct,"{""codelist_id"":""SEX""}",sdtm.oak::assign_ct,0.2.0,,portfolio_demo_reviewer,2026-09-02T09:42:57Z,6
DM_DEMOGRAPHICS,DM,ETHNIC,dm_raw,dm_raw.IT.ETHNIC,,,assign_ct,"{""codelist_id"":""ETHNIC""}",sdtm.oak::assign_ct,0.2.0,,portfolio_demo_reviewer,2026-09-02T09:42:57Z,6
DM_DEMOGRAPHICS,DM,RACE,dm_raw,dm_raw.IT.RACE,,,assign_ct,"{""codelist_id"":""RACE""}",sdtm.oak::assign_ct,0.2.0,,portfolio_demo_reviewer,2026-09-02T09:42:57Z,6
DM_DEMOGRAPHICS,DM,COUNTRY,dm_raw,dm_raw.COUNTRY,,,assign_no_ct,[],sdtm.oak::assign_no_ct,0.2.0,,portfolio_demo_reviewer,2026-09-02T09:42:57Z,6
DM_TREATMENT,DM,ARMCD,dm_raw,dm_raw.PLANNED_ARMCD,,,assign_no_ct,[],sdtm.oak::assign_no_ct,0.2.0,,portfolio_demo_reviewer,2026-09-02T09:42:57Z,6
DM_TREATMENT,DM,ARM,dm_raw,dm_raw.PLANNED_ARM,,,assign_no_ct,[],sdtm.oak::assign_no_ct,0.2.0,,portfolio_demo_reviewer,2026-09-02T09:42:57Z,6
DM_TREATMENT,DM,ACTARMCD,dm_raw,dm_raw.ACTUAL_ARMCD,,,assign_no_ct,[],sdtm.oak::assign_no_ct,0.2.0,,portfolio_demo_reviewer,2026-09-02T09:42:57Z,6
DM_TREATMENT,DM,ACTARM,dm_raw,dm_raw.ACTUAL_ARM,,,assign_no_ct,[],sdtm.oak::assign_no_ct,0.2.0,,portfolio_demo_reviewer,2026-09-02T09:42:57Z,6
VS_CORE,VS,STUDYID,vs_raw,vs_raw.STUDY,,,assign_no_ct,[],sdtm.oak::assign_no_ct,0.2.0,,portfolio_demo_reviewer,2026-09-02T09:42:58Z,12
VS_CORE,VS,DOMAIN,,,,,hardcode_no_ct,"{""value"":""VS""}",sdtm.oak::hardcode_no_ct,0.2.0,,portfolio_demo_reviewer,2026-09-02T09:42:58Z,12
VS_CORE,VS,USUBJID,vs_raw,vs_raw.STUDY | vs_raw.PATNUM,,,derive_usubjid,"{""separator"":""-""}",TraceSDTM::derive_usubjid,,,portfolio_demo_reviewer,2026-09-02T09:42:58Z,12
VS_CORE,VS,VISIT,vs_raw,vs_raw.INSTANCE,,,assign_no_ct,[],sdtm.oak::assign_no_ct,0.2.0,,portfolio_demo_reviewer,2026-09-02T09:42:58Z,12
VS_CORE,VS,VSDTC,vs_raw,vs_raw.VTLD,,,to_iso8601_date,"{""formats"":[""dd-mmm-yyyy"",""m/d/y"",""y-m-d""]}",sdtm.oak::create_iso8601,0.2.0,,portfolio_demo_reviewer,2026-09-02T09:42:58Z,12
VS_CORE,VS,VSPOS,vs_raw,vs_raw.SUBPOS,,,assign_ct,"{""codelist_id"":""VSPOS""}",sdtm.oak::assign_ct,0.2.0,,portfolio_demo_reviewer,2026-09-02T09:42:58Z,12
VS_CORE,VS,VISITNUM,vs_raw,vs_raw.INSTANCE,,,derive_visitnum,"{""visit_map_id"":""trace_visits_v1""}",TraceSDTM::derive_visitnum,,,portfolio_demo_reviewer,2026-09-02T09:42:58Z,12
VS_DIABP,VS,VSTESTCD | VSTEST | VSORRES | VSORRESU,vs_raw,vs_raw.DIA_BP,,,transpose_findings,"{""test_code"":""DIABP"",""test_name"":""Diastolic Blood Pressure"",""original_unit"":""mmHg"",""unit_source"":null}",TraceSDTM::transpose_findings,,,portfolio_demo_reviewer,2026-09-02T09:42:58Z,12
VS_DIABP,VS,VSSTRESC | VSSTRESN | VSSTRESU,vs_raw,vs_raw.DIA_BP,,,standardize_unit,"{""conversion_set_id"":""vs_standard_v1"",""target_unit"":""mmHg""}",TraceSDTM::standardize_unit,,1.0.0,portfolio_demo_reviewer,2026-09-02T09:42:58Z,12
VS_HEIGHT,VS,VSTESTCD | VSTEST | VSORRES | VSORRESU,vs_raw,vs_raw.IT.HEIGHT_VSORRES,,,transpose_findings,"{""test_code"":""HEIGHT"",""test_name"":""Height"",""original_unit"":""cm"",""unit_source"":null}",TraceSDTM::transpose_findings,,,portfolio_demo_reviewer,2026-09-02T09:42:58Z,6
VS_HEIGHT,VS,VSSTRESC | VSSTRESN | VSSTRESU,vs_raw,vs_raw.IT.HEIGHT_VSORRES,,,standardize_unit,"{""conversion_set_id"":""vs_standard_v1"",""target_unit"":""cm""}",TraceSDTM::standardize_unit,,1.0.0,portfolio_demo_reviewer,2026-09-02T09:42:58Z,6
VS_POST_DERIVATIONS,VS,VSSEQ,,,,,derive_sequence,"{""record_variables"":[""STUDYID"",""USUBJID"",""VSDTC"",""VSTESTCD"",""VSPOS"",""VISITNUM"","".SOURCE_ROW""],""start_at"":1}",sdtm.oak::derive_seq,0.2.0,,portfolio_demo_reviewer,2026-09-02T09:42:58Z,60
VS_POST_DERIVATIONS,VS,VSDY,,,,,derive_study_day,"{""target_date"":""VSDTC"",""reference_date"":""RFSTDTC""}",sdtm.oak::derive_study_day,0.2.0,,portfolio_demo_reviewer,2026-09-02T09:42:58Z,60
VS_PULSE,VS,VSTESTCD | VSTEST | VSORRES | VSORRESU,vs_raw,vs_raw.PULSE,,,transpose_findings,"{""test_code"":""PULSE"",""test_name"":""Pulse Rate"",""original_unit"":""beats/min"",""unit_source"":null}",TraceSDTM::transpose_findings,,,portfolio_demo_reviewer,2026-09-02T09:42:58Z,12
VS_PULSE,VS,VSSTRESC | VSSTRESN | VSSTRESU,vs_raw,vs_raw.PULSE,,,standardize_unit,"{""conversion_set_id"":""vs_standard_v1"",""target_unit"":""beats/min""}",TraceSDTM::standardize_unit,,1.0.0,portfolio_demo_reviewer,2026-09-02T09:42:58Z,12
VS_SYSBP,VS,VSTESTCD | VSTEST | VSORRES | VSORRESU,vs_raw,vs_raw.SYS_BP,,,transpose_findings,"{""test_code"":""SYSBP"",""test_name"":""Systolic Blood Pressure"",""original_unit"":""mmHg"",""unit_source"":null}",TraceSDTM::transpose_findings,,,portfolio_demo_reviewer,2026-09-02T09:42:58Z,12
VS_SYSBP,VS,VSSTRESC | VSSTRESN | VSSTRESU,vs_raw,vs_raw.SYS_BP,,,standardize_unit,"{""conversion_set_id"":""vs_standard_v1"",""target_unit"":""mmHg""}",TraceSDTM::standardize_unit,,1.0.0,portfolio_demo_reviewer,2026-09-02T09:42:58Z,12
VS_TEMP,VS,VSTESTCD | VSTEST | VSORRES | VSORRESU,vs_raw,vs_raw.IT.TEMP,,,transpose_findings,"{""test_code"":""TEMP"",""test_name"":""Temperature"",""original_unit"":""C"",""unit_source"":null}",TraceSDTM::transpose_findings,,,portfolio_demo_reviewer,2026-09-02T09:42:58Z,12
VS_TEMP,VS,VSSTRESC | VSSTRESN | VSSTRESU,vs_raw,vs_raw.IT.TEMP,,,standardize_unit,"{""conversion_set_id"":""vs_standard_v1"",""target_unit"":""C""}",TraceSDTM::standardize_unit,,1.0.0,portfolio_demo_reviewer,2026-09-02T09:42:58Z,12
VS_WEIGHT,VS,VSTESTCD | VSTEST | VSORRES | VSORRESU,vs_raw,vs_raw.IT.WEIGHT,,,transpose_findings,"{""test_code"":""WEIGHT"",""test_name"":""Weight"",""original_unit"":""kg"",""unit_source"":null}",TraceSDTM::transpose_findings,,,portfolio_demo_reviewer,2026-09-02T09:42:58Z,6
VS_WEIGHT,VS,VSSTRESC | VSSTRESN | VSSTRESU,vs_raw,vs_raw.IT.WEIGHT,,,standardize_unit,"{""conversion_set_id"":""vs_standard_v1"",""target_unit"":""kg""}",TraceSDTM::standardize_unit,,1.0.0,portfolio_demo_reviewer,2026-09-02T09:42:58Z,6
