STUDYID,DOMAIN,USUBJID,AESEQ,AETERM,AEDECOD,AEBODSYS,AESEV,AESER,AEREL,AEOUT,AESHOSP,AESTDTC,AEENDTC,AESTDY,AEENDY,AEENRF
TRACE002,AE,TRACE002-701-2001,1,Headache,HEADACHE,NERVOUS SYSTEM DISORDERS,MILD,N,POSSIBLE,RECOVERED/RESOLVED,N,2025-01-06T10:30,2025-01-07T09:15,2,3,
TRACE002,AE,TRACE002-701-2002,1,Nausea,NAUSEA,GASTROINTESTINAL DISORDERS,MODERATE,N,PROBABLE,RECOVERING/RESOLVING,N,2025-01,2025-01,,,
TRACE002,AE,TRACE002-702-2003,1,Application site erythema,APPLICATION SITE ERYTHEMA,GENERAL DISORDERS AND ADMINISTRATION SITE CONDITIONS,MILD,N,POSSIBLE,NOT RECOVERED/NOT RESOLVED,N,2025,,,,ONGOING
TRACE002,AE,TRACE002-702-2004,1,Dizziness,DIZZINESS,NERVOUS SYSTEM DISORDERS,SEVERE,Y,PROBABLE,RECOVERED/RESOLVED,Y,2025-01-08T14:00,2025-01-10T11:00,3,5,
TRACE002,AE,TRACE002-702-2004,2,Fatigue,FATIGUE,GENERAL DISORDERS AND ADMINISTRATION SITE CONDITIONS,MODERATE,N,UNLIKELY,RECOVERED/RESOLVED,N,2025-01-15,2025-01-16,10,11,
