STUDYID,DOMAIN,USUBJID,SUBJID,RFSTDTC,RFICDTC,SITEID,AGE,AGEU,SEX,RACE,ETHNIC,ARMCD,ARM,ACTARMCD,ACTARM,COUNTRY
TRACE002,DM,TRACE002-701-2001,701-2001,2025-01-05T08:00,2024-12-20,701,42,YEARS,F,WHITE,NOT HISPANIC OR LATINO,PBO,Placebo,PBO,Placebo,USA
TRACE002,DM,TRACE002-701-2002,701-2002,2025-01-05T09:00,2024-12-21,701,57,YEARS,M,ASIAN,HISPANIC OR LATINO,TRT10,Trace Drug 10 mg,TRT10,Trace Drug 10 mg,USA
TRACE002,DM,TRACE002-702-2003,702-2003,2025-01-06T08:30,2024-12-22,702,35,YEARS,F,BLACK OR AFRICAN AMERICAN,NOT HISPANIC OR LATINO,TRT10,Trace Drug 10 mg,TRT10,Trace Drug 10 mg,CAN
TRACE002,DM,TRACE002-702-2004,702-2004,2025-01-06T10:30,2024-12-23,702,64,YEARS,M,WHITE,NOT HISPANIC OR LATINO,PBO,Placebo,PBO,Placebo,CAN
