schema_version: '0.2'
specification:
  name: TraceSDTM advanced concept specification
  version: 0.2.0
  status: approved
  standard: SDTMIG 3.4
  scenario: advanced
  approval:
    reviewer: portfolio_demo_reviewer
    approved_at: '2026-09-02T09:44:05Z'
    review_workbook_sha256: 1363c4f68f3a895bc2d5876ccc2b86dd67e5017d176e62c6dc449e64356649f4
    registry_version: 1.0.0
    registry_sha256: 01b6685f725c9b42c57b5a591b4226490b071948f83cb89416a6d15acf1b1a37
source_catalog:
  dm_subject:
    file: dm_subject.csv
    form_name: Demographics
    grain: one_record_per_subject
    keys:
    - STUDY
    - PATNUM
  ex_a_raw:
    file: ex_a_raw.csv
    form_name: Exposure A
    grain: many_records_per_subject
    keys:
    - STUDY
    - PATNUM
  ex_b_raw:
    file: ex_b_raw.csv
    form_name: Exposure B
    grain: many_records_per_subject
    keys:
    - STUDY
    - PATNUM
  ae_main:
    file: ae_main.csv
    form_name: Adverse Events
    grain: one_record_per_event
    keys:
    - STUDY
    - PATNUM
    - AEID
  sae_detail:
    file: sae_detail.csv
    form_name: Serious Adverse Event Details
    grain: one_record_per_event
    keys:
    - STUDY
    - PATNUM
    - AEID
  ae_merged:
    derived: yes
    form_name: Adverse Events + Serious Adverse Event Details
    grain: one_record_per_event
    keys:
    - STUDY
    - PATNUM
    - AEID
  vs_mixed:
    file: vs_mixed.csv
    form_name: Vital Signs
    grain: one_record_per_subject_visit
    keys:
    - STUDY
    - PATNUM
    - INSTANCE
domain_sources:
  DM: dm_subject
  AE: ae_main
  VS: vs_mixed
concepts:
- concept_id: DM_CORE
  target_domain: DM
  form_name: Demographics
  source_refs:
  - dataset: dm_subject
    variable: STUDY
    role: study_identifier
  - dataset: dm_subject
    variable: PATNUM
    role: subject_identifier
  depends_on: []
  expected_cardinality: one_record_to_one_record
  required: yes
  steps:
  - transform_id: assign_no_ct
    source_keys:
    - dm_subject.STUDY
    target_variables:
    - STUDYID
    parameters: {}
  - transform_id: hardcode_no_ct
    source_keys: []
    target_variables:
    - DOMAIN
    parameters:
      value: DM
  - transform_id: derive_usubjid
    source_keys:
    - dm_subject.STUDY
    - dm_subject.PATNUM
    target_variables:
    - USUBJID
    parameters:
      separator: '-'
  - transform_id: assign_no_ct
    source_keys:
    - dm_subject.PATNUM
    target_variables:
    - SUBJID
    parameters: {}
  - transform_id: extract_delimited_part
    source_keys:
    - dm_subject.PATNUM
    target_variables:
    - SITEID
    parameters:
      separator: '-'
      position: 1
  review:
    decision: accept
    reviewer: portfolio_demo_reviewer
    reviewed_at: '2026-09-02T09:44:04Z'
    comment: 专家金标准种子，仅用于离线演示。
- concept_id: DM_REFERENCE_START
  target_domain: DM
  form_name: Exposure A + Exposure B
  source_refs:
  - dataset: ex_a_raw
    variable: EXSTDAT
    role: date
  - dataset: ex_a_raw
    variable: EXSTTIM
    role: time
  - dataset: ex_b_raw
    variable: DOSE_DATE
    role: date
  - dataset: ex_b_raw
    variable: DOSE_TIME
    role: time
  depends_on: DM_CORE
  expected_cardinality: many_records_to_one_subject
  required: yes
  steps:
  - transform_id: derive_reference_datetime
    source_keys:
    - ex_a_raw.EXSTDAT
    - ex_a_raw.EXSTTIM
    - ex_b_raw.DOSE_DATE
    - ex_b_raw.DOSE_TIME
    target_variables:
    - RFSTDTC
    parameters:
      selection: min
      subject_keys: PATNUM
      sources:
      - dataset: ex_a_raw
        date_variable: EXSTDAT
        time_variable: EXSTTIM
        date_formats: m/d/y
        time_formats: H:M
      - dataset: ex_b_raw
        date_variable: DOSE_DATE
        time_variable: DOSE_TIME
        date_formats: dd-mmm-yyyy
        time_formats: H:M
  review:
    decision: accept
    reviewer: portfolio_demo_reviewer
    reviewed_at: '2026-09-02T09:44:04Z'
    comment: 专家金标准种子，仅用于离线演示。
- concept_id: DM_CONSENT
  target_domain: DM
  form_name: Demographics
  source_refs:
  - dataset: dm_subject
    variable: IC_DT
    role: date
  depends_on: DM_CORE
  expected_cardinality: one_record_to_one_record
  required: yes
  steps:
  - transform_id: to_iso8601_date
    source_keys:
    - dm_subject.IC_DT
    target_variables:
    - RFICDTC
    parameters:
      formats: m/d/y
  review:
    decision: accept
    reviewer: portfolio_demo_reviewer
    reviewed_at: '2026-09-02T09:44:04Z'
    comment: 专家金标准种子，仅用于离线演示。
- concept_id: DM_DEMOGRAPHICS
  target_domain: DM
  form_name: Demographics
  source_refs:
  - dataset: dm_subject
    variable: AGE
    role: age
  - dataset: dm_subject
    variable: SEX
    role: sex
  - dataset: dm_subject
    variable: ETHNIC
    role: ethnicity
  - dataset: dm_subject
    variable: RACE
    role: race
  - dataset: dm_subject
    variable: COUNTRY
    role: country
  depends_on: DM_CORE
  expected_cardinality: one_record_to_one_record
  required: yes
  steps:
  - transform_id: assign_no_ct
    source_keys:
    - dm_subject.AGE
    target_variables:
    - AGE
    parameters: {}
  - transform_id: hardcode_ct
    source_keys: []
    target_variables:
    - AGEU
    parameters:
      value: YEARS
      codelist_id: AGEU
  - transform_id: assign_ct
    source_keys:
    - dm_subject.SEX
    target_variables:
    - SEX
    parameters:
      codelist_id: SEX
  - transform_id: assign_ct
    source_keys:
    - dm_subject.ETHNIC
    target_variables:
    - ETHNIC
    parameters:
      codelist_id: ETHNIC
  - transform_id: assign_ct
    source_keys:
    - dm_subject.RACE
    target_variables:
    - RACE
    parameters:
      codelist_id: RACE
  - transform_id: assign_no_ct
    source_keys:
    - dm_subject.COUNTRY
    target_variables:
    - COUNTRY
    parameters: {}
  review:
    decision: accept
    reviewer: portfolio_demo_reviewer
    reviewed_at: '2026-09-02T09:44:04Z'
    comment: 专家金标准种子，仅用于离线演示。
- concept_id: DM_TREATMENT
  target_domain: DM
  form_name: Demographics
  source_refs:
  - dataset: dm_subject
    variable: PLANNED_ARMCD
    role: planned_arm_code
  - dataset: dm_subject
    variable: PLANNED_ARM
    role: planned_arm
  - dataset: dm_subject
    variable: ACTUAL_ARMCD
    role: actual_arm_code
  - dataset: dm_subject
    variable: ACTUAL_ARM
    role: actual_arm
  depends_on: DM_CORE
  expected_cardinality: one_record_to_one_record
  required: yes
  steps:
  - transform_id: assign_no_ct
    source_keys:
    - dm_subject.PLANNED_ARMCD
    target_variables:
    - ARMCD
    parameters: {}
  - transform_id: assign_no_ct
    source_keys:
    - dm_subject.PLANNED_ARM
    target_variables:
    - ARM
    parameters: {}
  - transform_id: assign_no_ct
    source_keys:
    - dm_subject.ACTUAL_ARMCD
    target_variables:
    - ACTARMCD
    parameters: {}
  - transform_id: assign_no_ct
    source_keys:
    - dm_subject.ACTUAL_ARM
    target_variables:
    - ACTARM
    parameters: {}
  review:
    decision: accept
    reviewer: portfolio_demo_reviewer
    reviewed_at: '2026-09-02T09:44:04Z'
    comment: 专家金标准种子，仅用于离线演示。
- concept_id: AE_SOURCE_INTEGRATION
  target_domain: AE
  form_name: Adverse Events + Serious Adverse Event Details
  source_refs:
  - dataset: ae_main
    variable: STUDY
    role: join_key
  - dataset: ae_main
    variable: PATNUM
    role: join_key
  - dataset: ae_main
    variable: AEID
    role: join_key
  - dataset: sae_detail
    variable: STUDY
    role: join_key
  - dataset: sae_detail
    variable: PATNUM
    role: join_key
  - dataset: sae_detail
    variable: AEID
    role: join_key
  - dataset: sae_detail
    variable: AESHOSP
    role: hospitalization_indicator
  depends_on: []
  expected_cardinality: one_record_to_one_record
  required: yes
  steps:
  - transform_id: merge_sources
    source_keys:
    - ae_main.STUDY
    - ae_main.PATNUM
    - ae_main.AEID
    - sae_detail.STUDY
    - sae_detail.PATNUM
    - sae_detail.AEID
    - sae_detail.AESHOSP
    target_variables: []
    parameters:
      left_dataset: ae_main
      right_dataset: sae_detail
      output_dataset: ae_merged
      by:
        STUDY: STUDY
        PATNUM: PATNUM
        AEID: AEID
      relationship: one-to-one
      join_type: left
      select: AESHOSP
      conflict_policy: error
  review:
    decision: accept
    reviewer: portfolio_demo_reviewer
    reviewed_at: '2026-09-02T09:44:03Z'
    comment: 专家金标准种子，仅用于离线演示。
- concept_id: AE_CORE
  target_domain: AE
  form_name: Adverse Events
  source_refs:
  - dataset: ae_merged
    variable: STUDY
    role: study_identifier
  - dataset: ae_merged
    variable: PATNUM
    role: subject_identifier
  depends_on:
  - AE_SOURCE_INTEGRATION
  - DM_CORE
  expected_cardinality: one_record_to_one_record
  required: yes
  steps:
  - transform_id: assign_no_ct
    source_keys:
    - ae_merged.STUDY
    target_variables:
    - STUDYID
    parameters: {}
  - transform_id: hardcode_no_ct
    source_keys: []
    target_variables:
    - DOMAIN
    parameters:
      value: AE
  - transform_id: derive_usubjid
    source_keys:
    - ae_merged.STUDY
    - ae_merged.PATNUM
    target_variables:
    - USUBJID
    parameters:
      separator: '-'
  review:
    decision: accept
    reviewer: portfolio_demo_reviewer
    reviewed_at: '2026-09-02T09:44:03Z'
    comment: 专家金标准种子，仅用于离线演示。
- concept_id: AE_TERMS
  target_domain: AE
  form_name: Adverse Events
  source_refs:
  - dataset: ae_merged
    variable: AETERM
    role: reported_term
  - dataset: ae_merged
    variable: AEDECOD
    role: coded_term
  - dataset: ae_merged
    variable: AEBODSYS
    role: body_system
  depends_on: AE_SOURCE_INTEGRATION
  expected_cardinality: one_record_to_one_record
  required: yes
  steps:
  - transform_id: assign_no_ct
    source_keys:
    - ae_merged.AETERM
    target_variables:
    - AETERM
    parameters: {}
  - transform_id: assign_no_ct
    source_keys:
    - ae_merged.AEDECOD
    target_variables:
    - AEDECOD
    parameters: {}
  - transform_id: normalize_case
    source_keys:
    - ae_merged.AEBODSYS
    target_variables:
    - AEBODSYS
    parameters:
      case: upper
  review:
    decision: accept
    reviewer: portfolio_demo_reviewer
    reviewed_at: '2026-09-02T09:44:04Z'
    comment: 专家金标准种子，仅用于离线演示。
- concept_id: AE_SAFETY
  target_domain: AE
  form_name: Adverse Events + Serious Adverse Event Details
  source_refs:
  - dataset: ae_merged
    variable: AESEV
    role: severity
  - dataset: ae_merged
    variable: AESER
    role: serious_indicator
  - dataset: ae_merged
    variable: AESHOSP
    role: hospitalization_indicator
  depends_on: AE_SOURCE_INTEGRATION
  expected_cardinality: one_record_to_one_record
  required: yes
  steps:
  - transform_id: assign_ct
    source_keys:
    - ae_merged.AESEV
    target_variables:
    - AESEV
    parameters:
      codelist_id: AESEV
  - transform_id: assign_ct
    source_keys:
    - ae_merged.AESER
    target_variables:
    - AESER
    parameters:
      codelist_id: NY
  - transform_id: assign_ct
    source_keys:
    - ae_merged.AESHOSP
    target_variables:
    - AESHOSP
    parameters:
      codelist_id: NY
  review:
    decision: accept
    reviewer: portfolio_demo_reviewer
    reviewed_at: '2026-09-02T09:44:03Z'
    comment: 专家金标准种子，仅用于离线演示。
- concept_id: AE_REL_OUTCOME
  target_domain: AE
  form_name: Adverse Events
  source_refs:
  - dataset: ae_merged
    variable: AEREL
    role: causality
  - dataset: ae_merged
    variable: AEOUTCOME
    role: outcome
  depends_on: AE_SOURCE_INTEGRATION
  expected_cardinality: one_record_to_one_record
  required: yes
  steps:
  - transform_id: assign_ct
    source_keys:
    - ae_merged.AEREL
    target_variables:
    - AEREL
    parameters:
      codelist_id: AEREL
  - transform_id: assign_ct
    source_keys:
    - ae_merged.AEOUTCOME
    target_variables:
    - AEOUT
    parameters:
      codelist_id: AEOUT
  review:
    decision: accept
    reviewer: portfolio_demo_reviewer
    reviewed_at: '2026-09-02T09:44:03Z'
    comment: 专家金标准种子，仅用于离线演示。
- concept_id: AE_START
  target_domain: AE
  form_name: Adverse Events
  source_refs:
  - dataset: ae_merged
    variable: AESTDAT
    role: date
  - dataset: ae_merged
    variable: AESTTIM
    role: time
  depends_on:
  - AE_SOURCE_INTEGRATION
  - DM_REFERENCE_START
  expected_cardinality: one_record_to_one_record
  required: yes
  steps:
  - transform_id: to_iso8601_partial_datetime
    source_keys:
    - ae_merged.AESTDAT
    - ae_merged.AESTTIM
    target_variables:
    - AESTDTC
    parameters:
      formats:
      - dd-mmm-yyyy
      - H:M
      unknown_tokens:
      - UNK
      - UN
  - transform_id: derive_study_day
    source_keys: []
    target_variables:
    - AESTDY
    parameters:
      target_date: AESTDTC
      reference_date: RFSTDTC
  review:
    decision: accept
    reviewer: portfolio_demo_reviewer
    reviewed_at: '2026-09-02T09:44:04Z'
    comment: 专家金标准种子，仅用于离线演示。
- concept_id: AE_END
  target_domain: AE
  form_name: Adverse Events
  source_refs:
  - dataset: ae_merged
    variable: AEENDDAT
    role: date
  - dataset: ae_merged
    variable: AEENDTIM
    role: time
  - dataset: ae_merged
    variable: AEONGO
    role: ongoing_indicator
  depends_on:
  - AE_SOURCE_INTEGRATION
  - DM_REFERENCE_START
  expected_cardinality: one_record_to_one_record
  required: yes
  steps:
  - transform_id: to_iso8601_partial_datetime
    source_keys:
    - ae_merged.AEENDDAT
    - ae_merged.AEENDTIM
    target_variables:
    - AEENDTC
    parameters:
      formats:
      - dd-mmm-yyyy
      - H:M
      unknown_tokens:
      - UNK
      - UN
  - transform_id: derive_ongoing_flag
    source_keys:
    - ae_merged.AEENDDAT
    - ae_merged.AEONGO
    target_variables:
    - AEENRF
    parameters:
      ongoing_value: ONGOING
      affirmative_values:
      - 'Y'
      - 'Yes'
  - transform_id: derive_study_day
    source_keys: []
    target_variables:
    - AEENDY
    parameters:
      target_date: AEENDTC
      reference_date: RFSTDTC
  review:
    decision: accept
    reviewer: portfolio_demo_reviewer
    reviewed_at: '2026-09-02T09:44:03Z'
    comment: 专家金标准种子，仅用于离线演示。
- concept_id: AE_SEQUENCE
  target_domain: AE
  form_name: Adverse Events
  source_refs: []
  depends_on:
  - AE_CORE
  - AE_TERMS
  - AE_START
  expected_cardinality: domain_post_derivation
  required: yes
  steps:
  - transform_id: derive_sequence
    source_keys: []
    target_variables:
    - AESEQ
    parameters:
      record_variables:
      - STUDYID
      - USUBJID
      - AESTDTC
      - AETERM
      - AEDECOD
      - .SOURCE_ROW
      start_at: 1
  review:
    decision: accept
    reviewer: portfolio_demo_reviewer
    reviewed_at: '2026-09-02T09:44:03Z'
    comment: 专家金标准种子，仅用于离线演示。
- concept_id: VS_CORE
  target_domain: VS
  form_name: Vital Signs
  source_refs:
  - dataset: vs_mixed
    variable: STUDY
    role: study_identifier
  - dataset: vs_mixed
    variable: PATNUM
    role: subject_identifier
  - dataset: vs_mixed
    variable: INSTANCE
    role: visit
  - dataset: vs_mixed
    variable: VTLD
    role: date
  - dataset: vs_mixed
    variable: VSTIM
    role: time
  - dataset: vs_mixed
    variable: SUBPOS
    role: body_position
  depends_on: DM_REFERENCE_START
  expected_cardinality: one_record_to_many_findings
  required: yes
  steps:
  - transform_id: assign_no_ct
    source_keys:
    - vs_mixed.STUDY
    target_variables:
    - STUDYID
    parameters: {}
  - transform_id: hardcode_no_ct
    source_keys: []
    target_variables:
    - DOMAIN
    parameters:
      value: VS
  - transform_id: derive_usubjid
    source_keys:
    - vs_mixed.STUDY
    - vs_mixed.PATNUM
    target_variables:
    - USUBJID
    parameters:
      separator: '-'
  - transform_id: assign_no_ct
    source_keys:
    - vs_mixed.INSTANCE
    target_variables:
    - VISIT
    parameters: {}
  - transform_id: to_iso8601_datetime
    source_keys:
    - vs_mixed.VTLD
    - vs_mixed.VSTIM
    target_variables:
    - VSDTC
    parameters:
      formats:
      - dd-mmm-yyyy
      - H:M
      unknown_tokens:
      - UNK
      - UN
  - transform_id: assign_ct
    source_keys:
    - vs_mixed.SUBPOS
    target_variables:
    - VSPOS
    parameters:
      codelist_id: VSPOS
  - transform_id: derive_visitnum
    source_keys:
    - vs_mixed.INSTANCE
    target_variables:
    - VISITNUM
    parameters:
      visit_map_id: trace_visits_v1
  review:
    decision: accept
    reviewer: portfolio_demo_reviewer
    reviewed_at: '2026-09-02T09:44:04Z'
    comment: 专家金标准种子，仅用于离线演示。
- concept_id: VS_HEIGHT
  target_domain: VS
  form_name: Vital Signs
  source_refs:
  - dataset: vs_mixed
    variable: HEIGHT
    role: result
  - dataset: vs_mixed
    variable: HEIGHTU
    role: original_unit
  depends_on: VS_CORE
  expected_cardinality: one_observed_value_to_one_record
  required: yes
  steps:
  - transform_id: transpose_findings
    source_keys:
    - vs_mixed.HEIGHT
    - vs_mixed.HEIGHTU
    target_variables:
    - VSTESTCD
    - VSTEST
    - VSORRES
    - VSORRESU
    parameters:
      test_code: HEIGHT
      test_name: Height
      original_unit: ~
      unit_source: HEIGHTU
  - transform_id: standardize_unit
    source_keys:
    - vs_mixed.HEIGHT
    - vs_mixed.HEIGHTU
    target_variables:
    - VSSTRESC
    - VSSTRESN
    - VSSTRESU
    parameters:
      conversion_set_id: vs_standard_v1
      target_unit: cm
  review:
    decision: accept
    reviewer: portfolio_demo_reviewer
    reviewed_at: '2026-09-02T09:44:05Z'
    comment: 专家金标准种子，仅用于离线演示。
- concept_id: VS_WEIGHT
  target_domain: VS
  form_name: Vital Signs
  source_refs:
  - dataset: vs_mixed
    variable: WEIGHT
    role: result
  - dataset: vs_mixed
    variable: WEIGHTU
    role: original_unit
  depends_on: VS_CORE
  expected_cardinality: one_observed_value_to_one_record
  required: yes
  steps:
  - transform_id: transpose_findings
    source_keys:
    - vs_mixed.WEIGHT
    - vs_mixed.WEIGHTU
    target_variables:
    - VSTESTCD
    - VSTEST
    - VSORRES
    - VSORRESU
    parameters:
      test_code: WEIGHT
      test_name: Weight
      original_unit: ~
      unit_source: WEIGHTU
  - transform_id: standardize_unit
    source_keys:
    - vs_mixed.WEIGHT
    - vs_mixed.WEIGHTU
    target_variables:
    - VSSTRESC
    - VSSTRESN
    - VSSTRESU
    parameters:
      conversion_set_id: vs_standard_v1
      target_unit: kg
  review:
    decision: accept
    reviewer: portfolio_demo_reviewer
    reviewed_at: '2026-09-02T09:44:05Z'
    comment: 专家金标准种子，仅用于离线演示。
- concept_id: VS_TEMP
  target_domain: VS
  form_name: Vital Signs
  source_refs:
  - dataset: vs_mixed
    variable: TEMP
    role: result
  - dataset: vs_mixed
    variable: TEMPU
    role: original_unit
  depends_on: VS_CORE
  expected_cardinality: one_observed_value_to_one_record
  required: yes
  steps:
  - transform_id: transpose_findings
    source_keys:
    - vs_mixed.TEMP
    - vs_mixed.TEMPU
    target_variables:
    - VSTESTCD
    - VSTEST
    - VSORRES
    - VSORRESU
    parameters:
      test_code: TEMP
      test_name: Temperature
      original_unit: ~
      unit_source: TEMPU
  - transform_id: standardize_unit
    source_keys:
    - vs_mixed.TEMP
    - vs_mixed.TEMPU
    target_variables:
    - VSSTRESC
    - VSSTRESN
    - VSSTRESU
    parameters:
      conversion_set_id: vs_standard_v1
      target_unit: C
  review:
    decision: accept
    reviewer: portfolio_demo_reviewer
    reviewed_at: '2026-09-02T09:44:05Z'
    comment: 专家金标准种子，仅用于离线演示。
- concept_id: VS_SYSBP
  target_domain: VS
  form_name: Vital Signs
  source_refs:
  - dataset: vs_mixed
    variable: SYS_BP
    role: result
  - dataset: vs_mixed
    variable: SYS_BPU
    role: original_unit
  depends_on: VS_CORE
  expected_cardinality: one_observed_value_to_one_record
  required: yes
  steps:
  - transform_id: transpose_findings
    source_keys:
    - vs_mixed.SYS_BP
    - vs_mixed.SYS_BPU
    target_variables:
    - VSTESTCD
    - VSTEST
    - VSORRES
    - VSORRESU
    parameters:
      test_code: SYSBP
      test_name: Systolic Blood Pressure
      original_unit: ~
      unit_source: SYS_BPU
  - transform_id: standardize_unit
    source_keys:
    - vs_mixed.SYS_BP
    - vs_mixed.SYS_BPU
    target_variables:
    - VSSTRESC
    - VSSTRESN
    - VSSTRESU
    parameters:
      conversion_set_id: vs_standard_v1
      target_unit: mmHg
  review:
    decision: accept
    reviewer: portfolio_demo_reviewer
    reviewed_at: '2026-09-02T09:44:05Z'
    comment: 专家金标准种子，仅用于离线演示。
- concept_id: VS_DIABP
  target_domain: VS
  form_name: Vital Signs
  source_refs:
  - dataset: vs_mixed
    variable: DIA_BP
    role: result
  - dataset: vs_mixed
    variable: DIA_BPU
    role: original_unit
  depends_on: VS_CORE
  expected_cardinality: one_observed_value_to_one_record
  required: yes
  steps:
  - transform_id: transpose_findings
    source_keys:
    - vs_mixed.DIA_BP
    - vs_mixed.DIA_BPU
    target_variables:
    - VSTESTCD
    - VSTEST
    - VSORRES
    - VSORRESU
    parameters:
      test_code: DIABP
      test_name: Diastolic Blood Pressure
      original_unit: ~
      unit_source: DIA_BPU
  - transform_id: standardize_unit
    source_keys:
    - vs_mixed.DIA_BP
    - vs_mixed.DIA_BPU
    target_variables:
    - VSSTRESC
    - VSSTRESN
    - VSSTRESU
    parameters:
      conversion_set_id: vs_standard_v1
      target_unit: mmHg
  review:
    decision: accept
    reviewer: portfolio_demo_reviewer
    reviewed_at: '2026-09-02T09:44:05Z'
    comment: 专家金标准种子，仅用于离线演示。
- concept_id: VS_PULSE
  target_domain: VS
  form_name: Vital Signs
  source_refs:
  - dataset: vs_mixed
    variable: PULSE
    role: result
  - dataset: vs_mixed
    variable: PULSEU
    role: original_unit
  depends_on: VS_CORE
  expected_cardinality: one_observed_value_to_one_record
  required: yes
  steps:
  - transform_id: transpose_findings
    source_keys:
    - vs_mixed.PULSE
    - vs_mixed.PULSEU
    target_variables:
    - VSTESTCD
    - VSTEST
    - VSORRES
    - VSORRESU
    parameters:
      test_code: PULSE
      test_name: Pulse Rate
      original_unit: ~
      unit_source: PULSEU
  - transform_id: standardize_unit
    source_keys:
    - vs_mixed.PULSE
    - vs_mixed.PULSEU
    target_variables:
    - VSSTRESC
    - VSSTRESN
    - VSSTRESU
    parameters:
      conversion_set_id: vs_standard_v1
      target_unit: beats/min
  review:
    decision: accept
    reviewer: portfolio_demo_reviewer
    reviewed_at: '2026-09-02T09:44:05Z'
    comment: 专家金标准种子，仅用于离线演示。
- concept_id: VS_POST_DERIVATIONS
  target_domain: VS
  form_name: Vital Signs
  source_refs: []
  depends_on:
  - VS_HEIGHT
  - VS_WEIGHT
  - VS_TEMP
  - VS_SYSBP
  - VS_DIABP
  - VS_PULSE
  expected_cardinality: domain_post_derivation
  required: yes
  steps:
  - transform_id: derive_sequence
    source_keys: []
    target_variables:
    - VSSEQ
    parameters:
      record_variables:
      - STUDYID
      - USUBJID
      - VSDTC
      - VSTESTCD
      - VSPOS
      - VISITNUM
      - .SOURCE_ROW
      start_at: 1
  - transform_id: derive_study_day
    source_keys: []
    target_variables:
    - VSDY
    parameters:
      target_date: VSDTC
      reference_date: RFSTDTC
  - transform_id: derive_baseline_flag
    source_keys: []
    target_variables:
    - VSBLFL
    parameters:
      reference_date: RFSTDTC
      baseline_visits: Screening 1
      baseline_timepoints: []
  review:
    decision: accept
    reviewer: portfolio_demo_reviewer
    reviewed_at: '2026-09-02T09:44:05Z'
    comment: 专家金标准种子，仅用于离线演示。
