你是临床数据标准映射助手。第一阶段只判断每个临床概念需要的转换类别链，不选择具体函数。
不得发明来源字段、数据集或连接键，不得生成程序、公式、正则表达式或自由条件。
若日期格式有歧义、连接键不足、基数关系不明确或单位不能识别，status 必须为 needs_information。
返回 JSON 对象，顶层键 classifications。每个概念恰好一条记录，字段为 concept_id、categories、classification_score、evidence、uncertainties、status。
status 只能逐字使用 proposed 或 needs_information：信息足够时使用 proposed，信息不足时使用 needs_information；不得使用 ready、classified、success 或其他近义词。
categories 必须是按执行顺序排列的类别标识符字符串数组，只能逐字使用类别目录中的 category 值；不得使用数字、中文名称或自行缩写。
categories 对应的 stage_order 必须非递减，并在输出前自行核对。正确示例：{"concept_id":"EXAMPLE","categories":["direct_assignment","temporal_derivation"],"classification_score":0.9,"evidence":["有直接来源并需要研究日派生。"],"uncertainties":[],"status":"proposed"}。
转换类别目录：
{"source_integration":{"category":"source_integration","name":null,"description":"整合多个原始数据集或多个候选来源","stage_order":1},"direct_assignment":{"category":"direct_assignment","name":null,"description":"不改变语义的字段或常量赋值","stage_order":2},"controlled_terminology":{"category":"controlled_terminology","name":null,"description":"按已审核术语表转换或验证取值","stage_order":2},"date_time_conversion":{"category":"date_time_conversion","name":null,"description":"将日期、时间或日期时间转换为 ISO 8601","stage_order":2},"field_combination":{"category":"field_combination","name":null,"description":"组合或抽取多个来源字段","stage_order":2},"conditional_derivation":{"category":"conditional_derivation","name":null,"description":"根据受控条件派生结果","stage_order":2},"character_normalization":{"category":"character_normalization","name":null,"description":"进行受控的大小写规范化","stage_order":2},"record_transposition":{"category":"record_transposition","name":null,"description":"将横向检查字段展开为纵向 Findings 记录","stage_order":3},"unit_conversion":{"category":"unit_conversion","name":null,"description":"使用版本化受控换算表生成标准结果和单位","stage_order":4},"temporal_derivation":{"category":"temporal_derivation","name":null,"description":"派生序号、研究日、访视编号和基线标志","stage_order":4},"not_used":{"category":"not_used","name":null,"description":"明确声明来源概念不进入 SDTM","stage_order":5}}
目标域专业上下文：
{"domain":"VS","variables":{"STUDYID":{"label":"Study Identifier","type":"character","required":true},"DOMAIN":{"label":"Domain Abbreviation","type":"character","required":true},"USUBJID":{"label":"Unique Subject Identifier","type":"character","required":true},"VSSEQ":{"label":"Sequence Number","type":"numeric","required":true},"VSTESTCD":{"label":"Vital Signs Test Short Name","type":"character","required":true},"VSTEST":{"label":"Vital Signs Test Name","type":"character","required":true},"VSORRES":{"label":"Result or Finding in Original Units","type":"character","required":true},"VSORRESU":{"label":"Original Units","type":"character","required":false},"VSSTRESC":{"label":"Character Result/Finding in Std Format","type":"character","required":false},"VSSTRESN":{"label":"Numeric Result/Finding in Standard Units","type":"numeric","required":false},"VSSTRESU":{"label":"Standard Units","type":"character","required":false},"VSPOS":{"label":"Vital Signs Position of Subject","type":"character","required":false,"controlled":["SITTING","STANDING","SUPINE"]},"VSDTC":{"label":"Date/Time of Measurements","type":"character","required":false,"iso8601":true},"VSDY":{"label":"Study Day of Vital Signs","type":"numeric","required":false},"VISIT":{"label":"Visit Name","type":"character","required":false},"VISITNUM":{"label":"Visit Number","type":"numeric","required":false},"VSBLFL":{"label":"Baseline Flag","type":"character","required":false,"controlled":"Y"}}}
临床概念及来源上下文：
[{"concept_id":"VS_CORE","target_domain":"VS","form_name":"Vital Signs","expected_cardinality":"one_record_to_many_findings","required":true,"depends_on":"DM_REFERENCE_START","source_refs":[{"dataset":"vs_mixed","variable":"STUDY","role":"study_identifier"},{"dataset":"vs_mixed","variable":"PATNUM","role":"subject_identifier"},{"dataset":"vs_mixed","variable":"INSTANCE","role":"visit"},{"dataset":"vs_mixed","variable":"VTLD","role":"date"},{"dataset":"vs_mixed","variable":"VSTIM","role":"time"},{"dataset":"vs_mixed","variable":"SUBPOS","role":"body_position"}],"source_catalog":{"vs_mixed":{"file":"vs_mixed.csv","form_name":"Vital Signs","grain":"one_record_per_subject_visit","keys":["STUDY","PATNUM","INSTANCE"]}},"field_profiles":[{"declared_source_key":"vs_mixed.STUDY","role":"study_identifier","resolution":"direct","evidence":[{"source_dataset":"vs_mixed","source_variable":"STUDY","label":"Study identifier","data_type":"character","example_values":"TRACE002","missing_rate":0,"unique_count":1,"form_name":"Vital Signs","grain":"one_record_per_subject_visit","format_candidates":null,"partial_tokens":null,"record_count":8}]},{"declared_source_key":"vs_mixed.PATNUM","role":"subject_identifier","resolution":"direct","evidence":[{"source_dataset":"vs_mixed","source_variable":"PATNUM","label":"Subject identifier","data_type":"character","example_values":"701-2001 | 701-2002 | 702-2003 | 702-2004","missing_rate":0,"unique_count":4,"form_name":"Vital Signs","grain":"one_record_per_subject_visit","format_candidates":null,"partial_tokens":null,"record_count":8}]},{"declared_source_key":"vs_mixed.INSTANCE","role":"visit","resolution":"direct","evidence":[{"source_dataset":"vs_mixed","source_variable":"INSTANCE","label":"Visit name","data_type":"character","example_values":"Screening 1 | Week 2","missing_rate":0,"unique_count":2,"form_name":"Vital Signs","grain":"one_record_per_subject_visit","format_candidates":null,"partial_tokens":null,"record_count":8}]},{"declared_source_key":"vs_mixed.VTLD","role":"date","resolution":"direct","evidence":[{"source_dataset":"vs_mixed","source_variable":"VTLD","label":"Vital signs date","data_type":"character","example_values":"20-Dec-2024 | 19-Jan-2025 | 21-Dec-2024 | 22-Dec-2024 | 20-Jan-2025","missing_rate":0,"unique_count":6,"form_name":"Vital Signs","grain":"one_record_per_subject_visit","format_candidates":"dd-mmm-yyyy","partial_tokens":null,"record_count":8}]},{"declared_source_key":"vs_mixed.VSTIM","role":"time","resolution":"direct","evidence":[{"source_dataset":"vs_mixed","source_variable":"VSTIM","label":"VSTIM","data_type":"hms","example_values":"09:00:00 | 09:15:00 | 10:00:00 | 10:10:00 | 08:30:00","missing_rate":0,"unique_count":8,"form_name":"Vital Signs","grain":"one_record_per_subject_visit","format_candidates":"H:M","partial_tokens":null,"record_count":8}]},{"declared_source_key":"vs_mixed.SUBPOS","role":"body_position","resolution":"direct","evidence":[{"source_dataset":"vs_mixed","source_variable":"SUBPOS","label":"Body position","data_type":"character","example_values":"Supine | Sitting | Standing","missing_rate":0,"unique_count":3,"form_name":"Vital Signs","grain":"one_record_per_subject_visit","format_candidates":null,"partial_tokens":null,"record_count":8}]}]},{"concept_id":"VS_HEIGHT","target_domain":"VS","form_name":"Vital Signs","expected_cardinality":"one_observed_value_to_one_record","required":true,"depends_on":"VS_CORE","source_refs":[{"dataset":"vs_mixed","variable":"HEIGHT","role":"result"},{"dataset":"vs_mixed","variable":"HEIGHTU","role":"original_unit"}],"source_catalog":{"vs_mixed":{"file":"vs_mixed.csv","form_name":"Vital Signs","grain":"one_record_per_subject_visit","keys":["STUDY","PATNUM","INSTANCE"]}},"field_profiles":[{"declared_source_key":"vs_mixed.HEIGHT","role":"result","resolution":"direct","evidence":[{"source_dataset":"vs_mixed","source_variable":"HEIGHT","label":"HEIGHT","data_type":"numeric","example_values":"70 | 181 | 62.6 | 174","missing_rate":0.5,"unique_count":4,"form_name":"Vital Signs","grain":"one_record_per_subject_visit","format_candidates":null,"partial_tokens":null,"record_count":8}]},{"declared_source_key":"vs_mixed.HEIGHTU","role":"original_unit","resolution":"direct","evidence":[{"source_dataset":"vs_mixed","source_variable":"HEIGHTU","label":"HEIGHTU","data_type":"character","example_values":"in | cm","missing_rate":0.5,"unique_count":2,"form_name":"Vital Signs","grain":"one_record_per_subject_visit","format_candidates":null,"partial_tokens":null,"record_count":8}]}]},{"concept_id":"VS_WEIGHT","target_domain":"VS","form_name":"Vital Signs","expected_cardinality":"one_observed_value_to_one_record","required":true,"depends_on":"VS_CORE","source_refs":[{"dataset":"vs_mixed","variable":"WEIGHT","role":"result"},{"dataset":"vs_mixed","variable":"WEIGHTU","role":"original_unit"}],"source_catalog":{"vs_mixed":{"file":"vs_mixed.csv","form_name":"Vital Signs","grain":"one_record_per_subject_visit","keys":["STUDY","PATNUM","INSTANCE"]}},"field_profiles":[{"declared_source_key":"vs_mixed.WEIGHT","role":"result","resolution":"direct","evidence":[{"source_dataset":"vs_mixed","source_variable":"WEIGHT","label":"WEIGHT","data_type":"numeric","example_values":"180 | 81.2 | 86 | 188 | 132","missing_rate":0,"unique_count":8,"form_name":"Vital Signs","grain":"one_record_per_subject_visit","format_candidates":null,"partial_tokens":null,"record_count":8}]},{"declared_source_key":"vs_mixed.WEIGHTU","role":"original_unit","resolution":"direct","evidence":[{"source_dataset":"vs_mixed","source_variable":"WEIGHTU","label":"WEIGHTU","data_type":"character","example_values":"lb | kg","missing_rate":0,"unique_count":2,"form_name":"Vital Signs","grain":"one_record_per_subject_visit","format_candidates":null,"partial_tokens":null,"record_count":8}]}]},{"concept_id":"VS_TEMP","target_domain":"VS","form_name":"Vital Signs","expected_cardinality":"one_observed_value_to_one_record","required":true,"depends_on":"VS_CORE","source_refs":[{"dataset":"vs_mixed","variable":"TEMP","role":"result"},{"dataset":"vs_mixed","variable":"TEMPU","role":"original_unit"}],"source_catalog":{"vs_mixed":{"file":"vs_mixed.csv","form_name":"Vital Signs","grain":"one_record_per_subject_visit","keys":["STUDY","PATNUM","INSTANCE"]}},"field_profiles":[{"declared_source_key":"vs_mixed.TEMP","role":"result","resolution":"direct","evidence":[{"source_dataset":"vs_mixed","source_variable":"TEMP","label":"TEMP","data_type":"numeric","example_values":"98.6 | 37.1 | 36.5 | 98.2 | 99.1","missing_rate":0,"unique_count":8,"form_name":"Vital Signs","grain":"one_record_per_subject_visit","format_candidates":null,"partial_tokens":null,"record_count":8}]},{"declared_source_key":"vs_mixed.TEMPU","role":"original_unit","resolution":"direct","evidence":[{"source_dataset":"vs_mixed","source_variable":"TEMPU","label":"TEMPU","data_type":"character","example_values":"F | C","missing_rate":0,"unique_count":2,"form_name":"Vital Signs","grain":"one_record_per_subject_visit","format_candidates":null,"partial_tokens":null,"record_count":8}]}]},{"concept_id":"VS_SYSBP","target_domain":"VS","form_name":"Vital Signs","expected_cardinality":"one_observed_value_to_one_record","required":true,"depends_on":"VS_CORE","source_refs":[{"dataset":"vs_mixed","variable":"SYS_BP","role":"result"},{"dataset":"vs_mixed","variable":"SYS_BPU","role":"original_unit"}],"source_catalog":{"vs_mixed":{"file":"vs_mixed.csv","form_name":"Vital Signs","grain":"one_record_per_subject_visit","keys":["STUDY","PATNUM","INSTANCE"]}},"field_profiles":[{"declared_source_key":"vs_mixed.SYS_BP","role":"result","resolution":"direct","evidence":[{"source_dataset":"vs_mixed","source_variable":"SYS_BP","label":"Systolic blood pressure","data_type":"numeric","example_values":"122 | 120 | 130 | 126 | 116","missing_rate":0,"unique_count":8,"form_name":"Vital Signs","grain":"one_record_per_subject_visit","format_candidates":null,"partial_tokens":null,"record_count":8}]},{"declared_source_key":"vs_mixed.SYS_BPU","role":"original_unit","resolution":"direct","evidence":[{"source_dataset":"vs_mixed","source_variable":"SYS_BPU","label":"SYS BPU","data_type":"character","example_values":"mmHg","missing_rate":0,"unique_count":1,"form_name":"Vital Signs","grain":"one_record_per_subject_visit","format_candidates":null,"partial_tokens":null,"record_count":8}]}]},{"concept_id":"VS_DIABP","target_domain":"VS","form_name":"Vital Signs","expected_cardinality":"one_observed_value_to_one_record","required":true,"depends_on":"VS_CORE","source_refs":[{"dataset":"vs_mixed","variable":"DIA_BP","role":"result"},{"dataset":"vs_mixed","variable":"DIA_BPU","role":"original_unit"}],"source_catalog":{"vs_mixed":{"file":"vs_mixed.csv","form_name":"Vital Signs","grain":"one_record_per_subject_visit","keys":["STUDY","PATNUM","INSTANCE"]}},"field_profiles":[{"declared_source_key":"vs_mixed.DIA_BP","role":"result","resolution":"direct","evidence":[{"source_dataset":"vs_mixed","source_variable":"DIA_BP","label":"Diastolic blood pressure","data_type":"numeric","example_values":"78 | 76 | 82 | 80 | 74","missing_rate":0,"unique_count":8,"form_name":"Vital Signs","grain":"one_record_per_subject_visit","format_candidates":null,"partial_tokens":null,"record_count":8}]},{"declared_source_key":"vs_mixed.DIA_BPU","role":"original_unit","resolution":"direct","evidence":[{"source_dataset":"vs_mixed","source_variable":"DIA_BPU","label":"DIA BPU","data_type":"character","example_values":"mmHg","missing_rate":0,"unique_count":1,"form_name":"Vital Signs","grain":"one_record_per_subject_visit","format_candidates":null,"partial_tokens":null,"record_count":8}]}]},{"concept_id":"VS_PULSE","target_domain":"VS","form_name":"Vital Signs","expected_cardinality":"one_observed_value_to_one_record","required":true,"depends_on":"VS_CORE","source_refs":[{"dataset":"vs_mixed","variable":"PULSE","role":"result"},{"dataset":"vs_mixed","variable":"PULSEU","role":"original_unit"}],"source_catalog":{"vs_mixed":{"file":"vs_mixed.csv","form_name":"Vital Signs","grain":"one_record_per_subject_visit","keys":["STUDY","PATNUM","INSTANCE"]}},"field_profiles":[{"declared_source_key":"vs_mixed.PULSE","role":"result","resolution":"direct","evidence":[{"source_dataset":"vs_mixed","source_variable":"PULSE","label":"Pulse rate","data_type":"numeric","example_values":"64 | 62 | 72 | 70 | 68","missing_rate":0,"unique_count":8,"form_name":"Vital Signs","grain":"one_record_per_subject_visit","format_candidates":null,"partial_tokens":null,"record_count":8}]},{"declared_source_key":"vs_mixed.PULSEU","role":"original_unit","resolution":"direct","evidence":[{"source_dataset":"vs_mixed","source_variable":"PULSEU","label":"PULSEU","data_type":"character","example_values":"beats/min","missing_rate":0,"unique_count":1,"form_name":"Vital Signs","grain":"one_record_per_subject_visit","format_candidates":null,"partial_tokens":null,"record_count":8}]}]},{"concept_id":"VS_POST_DERIVATIONS","target_domain":"VS","form_name":"Vital Signs","expected_cardinality":"domain_post_derivation","required":true,"depends_on":["VS_HEIGHT","VS_WEIGHT","VS_TEMP","VS_SYSBP","VS_DIABP","VS_PULSE"],"source_refs":[],"source_catalog":{},"field_profiles":[]}]
