{
  "plans": {
    "DM_STUDY_IDENTIFIER#1": {
      "task_id": "DM_STUDY_IDENTIFIER",
      "assembly_group_id": "DM_CORE",
      "target_domain": "DM",
      "candidate_rank": 1,
      "source_refs": [
        {
          "ref_id": "dm_subject__STUDY",
          "dataset": "dm_subject",
          "variable": "STUDY",
          "role": "study_identifier"
        }
      ],
      "depends_on": [],
      "required": true,
      "semantic_decision": {
        "task_id": "DM_STUDY_IDENTIFIER",
        "target_domain": "DM",
        "output_kind": "variables",
        "target_variables": [
          "STUDYID"
        ],
        "score": 1,
        "evidence": "专家金标准种子。",
        "uncertainties": "不是真实模型结果。",
        "status": "proposed",
        "structure_valid": true
      },
      "steps": [
        {
          "step_id": "DM_STUDY_IDENTIFIER_STEP_01",
          "transform_id": "assign_no_ct",
          "source_ref_ids": [
            "dm_subject__STUDY"
          ],
          "target_variables": [
            "STUDYID"
          ],
          "parameters": {},
          "parameter_sources": {}
        }
      ],
      "recommendation_score": 1,
      "reason": "专家金标准种子。",
      "uncertainties": "不是真实模型结果。",
      "status": "proposed",
      "review_required": true
    },
    "DM_DOMAIN_CONSTANT#1": {
      "task_id": "DM_DOMAIN_CONSTANT",
      "assembly_group_id": "DM_CORE",
      "target_domain": "DM",
      "candidate_rank": 1,
      "source_refs": [],
      "depends_on": [],
      "required": true,
      "semantic_decision": {
        "task_id": "DM_DOMAIN_CONSTANT",
        "target_domain": "DM",
        "output_kind": "variables",
        "target_variables": [
          "DOMAIN"
        ],
        "score": 1,
        "evidence": "专家金标准种子。",
        "uncertainties": "不是真实模型结果。",
        "status": "proposed",
        "structure_valid": true
      },
      "steps": [
        {
          "step_id": "DM_DOMAIN_CONSTANT_STEP_01",
          "transform_id": "hardcode_no_ct",
          "source_ref_ids": [],
          "target_variables": [
            "DOMAIN"
          ],
          "parameters": {
            "value": "DM"
          },
          "parameter_sources": {
            "value": {
              "source": "policy",
              "reference": "resolver:target_constant"
            }
          }
        }
      ],
      "recommendation_score": 1,
      "reason": "专家金标准种子。",
      "uncertainties": "不是真实模型结果。",
      "status": "proposed",
      "review_required": true
    },
    "DM_UNIQUE_SUBJECT_IDENTIFIER#1": {
      "task_id": "DM_UNIQUE_SUBJECT_IDENTIFIER",
      "assembly_group_id": "DM_CORE",
      "target_domain": "DM",
      "candidate_rank": 1,
      "source_refs": [
        {
          "ref_id": "dm_subject__STUDY",
          "dataset": "dm_subject",
          "variable": "STUDY",
          "role": "study_identifier"
        },
        {
          "ref_id": "dm_subject__PATNUM",
          "dataset": "dm_subject",
          "variable": "PATNUM",
          "role": "subject_identifier"
        }
      ],
      "depends_on": [],
      "required": true,
      "semantic_decision": {
        "task_id": "DM_UNIQUE_SUBJECT_IDENTIFIER",
        "target_domain": "DM",
        "output_kind": "variables",
        "target_variables": [
          "USUBJID"
        ],
        "score": 1,
        "evidence": "专家金标准种子。",
        "uncertainties": "不是真实模型结果。",
        "status": "proposed",
        "structure_valid": true
      },
      "steps": [
        {
          "step_id": "DM_UNIQUE_SUBJECT_IDENTIFIER_STEP_01",
          "transform_id": "derive_usubjid",
          "source_ref_ids": [
            "dm_subject__STUDY",
            "dm_subject__PATNUM"
          ],
          "target_variables": [
            "USUBJID"
          ],
          "parameters": {
            "separator": "-"
          },
          "parameter_sources": {
            "separator": {
              "source": "policy",
              "reference": "resolver:identifier_policy"
            }
          }
        }
      ],
      "recommendation_score": 1,
      "reason": "专家金标准种子。",
      "uncertainties": "不是真实模型结果。",
      "status": "proposed",
      "review_required": true
    },
    "DM_SUBJECT_IDENTIFIER#1": {
      "task_id": "DM_SUBJECT_IDENTIFIER",
      "assembly_group_id": "DM_CORE",
      "target_domain": "DM",
      "candidate_rank": 1,
      "source_refs": [
        {
          "ref_id": "dm_subject__PATNUM",
          "dataset": "dm_subject",
          "variable": "PATNUM",
          "role": "subject_identifier"
        }
      ],
      "depends_on": [],
      "required": true,
      "semantic_decision": {
        "task_id": "DM_SUBJECT_IDENTIFIER",
        "target_domain": "DM",
        "output_kind": "variables",
        "target_variables": [
          "SUBJID"
        ],
        "score": 1,
        "evidence": "专家金标准种子。",
        "uncertainties": "不是真实模型结果。",
        "status": "proposed",
        "structure_valid": true
      },
      "steps": [
        {
          "step_id": "DM_SUBJECT_IDENTIFIER_STEP_01",
          "transform_id": "assign_no_ct",
          "source_ref_ids": [
            "dm_subject__PATNUM"
          ],
          "target_variables": [
            "SUBJID"
          ],
          "parameters": {},
          "parameter_sources": {}
        }
      ],
      "recommendation_score": 1,
      "reason": "专家金标准种子。",
      "uncertainties": "不是真实模型结果。",
      "status": "proposed",
      "review_required": true
    },
    "DM_SITE_IDENTIFIER#1": {
      "task_id": "DM_SITE_IDENTIFIER",
      "assembly_group_id": "DM_CORE",
      "target_domain": "DM",
      "candidate_rank": 1,
      "source_refs": [
        {
          "ref_id": "dm_subject__PATNUM",
          "dataset": "dm_subject",
          "variable": "PATNUM",
          "role": "site_and_subject_identifier"
        }
      ],
      "depends_on": [],
      "required": true,
      "semantic_decision": {
        "task_id": "DM_SITE_IDENTIFIER",
        "target_domain": "DM",
        "output_kind": "variables",
        "target_variables": [
          "SITEID"
        ],
        "score": 1,
        "evidence": "专家金标准种子。",
        "uncertainties": "不是真实模型结果。",
        "status": "proposed",
        "structure_valid": true
      },
      "steps": [
        {
          "step_id": "DM_SITE_IDENTIFIER_STEP_01",
          "transform_id": "extract_delimited_part",
          "source_ref_ids": [
            "dm_subject__PATNUM"
          ],
          "target_variables": [
            "SITEID"
          ],
          "parameters": {
            "separator": "-",
            "position": 1
          },
          "parameter_sources": {
            "separator": {
              "source": "policy",
              "reference": "resolver:site_identifier_policy"
            },
            "position": {
              "source": "policy",
              "reference": "resolver:site_identifier_policy"
            }
          }
        }
      ],
      "recommendation_score": 1,
      "reason": "专家金标准种子。",
      "uncertainties": "不是真实模型结果。",
      "status": "proposed",
      "review_required": true
    },
    "DM_REFERENCE_START#1": {
      "task_id": "DM_REFERENCE_START",
      "assembly_group_id": "DM_REFERENCE_START",
      "target_domain": "DM",
      "candidate_rank": 1,
      "source_refs": [
        {
          "ref_id": "ex_a_raw__EXSTDAT",
          "dataset": "ex_a_raw",
          "variable": "EXSTDAT",
          "role": "date"
        },
        {
          "ref_id": "ex_a_raw__EXSTTIM",
          "dataset": "ex_a_raw",
          "variable": "EXSTTIM",
          "role": "time"
        },
        {
          "ref_id": "ex_b_raw__DOSE_DATE",
          "dataset": "ex_b_raw",
          "variable": "DOSE_DATE",
          "role": "date"
        },
        {
          "ref_id": "ex_b_raw__DOSE_TIME",
          "dataset": "ex_b_raw",
          "variable": "DOSE_TIME",
          "role": "time"
        }
      ],
      "depends_on": [
        "DM_UNIQUE_SUBJECT_IDENTIFIER"
      ],
      "required": true,
      "semantic_decision": {
        "task_id": "DM_REFERENCE_START",
        "target_domain": "DM",
        "output_kind": "variables",
        "target_variables": [
          "RFSTDTC"
        ],
        "score": 1,
        "evidence": "专家金标准种子。",
        "uncertainties": "不是真实模型结果。",
        "status": "proposed",
        "structure_valid": true
      },
      "steps": [
        {
          "step_id": "DM_REFERENCE_START_STEP_01",
          "transform_id": "derive_reference_datetime",
          "source_ref_ids": [
            "ex_a_raw__EXSTDAT",
            "ex_a_raw__EXSTTIM",
            "ex_b_raw__DOSE_DATE",
            "ex_b_raw__DOSE_TIME"
          ],
          "target_variables": [
            "RFSTDTC"
          ],
          "parameters": {
            "selection": "min",
            "subject_keys": [
              "PATNUM"
            ],
            "sources": [
              {
                "dataset": "ex_a_raw",
                "date_variable": "EXSTDAT",
                "time_variable": "EXSTTIM",
                "date_formats": [
                  "m/d/y"
                ],
                "time_formats": [
                  "H:M"
                ]
              },
              {
                "dataset": "ex_b_raw",
                "date_variable": "DOSE_DATE",
                "time_variable": "DOSE_TIME",
                "date_formats": [
                  "dd-mmm-yyyy"
                ],
                "time_formats": [
                  "H:M"
                ]
              }
            ]
          },
          "parameter_sources": {
            "selection": {
              "source": "policy",
              "reference": "resolver:reference_datetime_policy"
            },
            "subject_keys": {
              "source": "policy",
              "reference": "resolver:reference_datetime_policy"
            },
            "sources": {
              "source": "policy",
              "reference": "resolver:reference_datetime_policy"
            }
          }
        }
      ],
      "recommendation_score": 1,
      "reason": "专家金标准种子。",
      "uncertainties": "不是真实模型结果。",
      "status": "proposed",
      "review_required": true
    },
    "DM_CONSENT#1": {
      "task_id": "DM_CONSENT",
      "assembly_group_id": "DM_CONSENT",
      "target_domain": "DM",
      "candidate_rank": 1,
      "source_refs": [
        {
          "ref_id": "dm_subject__IC_DT",
          "dataset": "dm_subject",
          "variable": "IC_DT",
          "role": "date"
        }
      ],
      "depends_on": [
        "DM_UNIQUE_SUBJECT_IDENTIFIER"
      ],
      "required": true,
      "semantic_decision": {
        "task_id": "DM_CONSENT",
        "target_domain": "DM",
        "output_kind": "variables",
        "target_variables": [
          "RFICDTC"
        ],
        "score": 1,
        "evidence": "专家金标准种子。",
        "uncertainties": "不是真实模型结果。",
        "status": "proposed",
        "structure_valid": true
      },
      "steps": [
        {
          "step_id": "DM_CONSENT_STEP_01",
          "transform_id": "to_iso8601_date",
          "source_ref_ids": [
            "dm_subject__IC_DT"
          ],
          "target_variables": [
            "RFICDTC"
          ],
          "parameters": {
            "formats": [
              "m/d/y"
            ]
          },
          "parameter_sources": {
            "formats": {
              "source": "policy",
              "reference": "resolver:approved_formats"
            }
          }
        }
      ],
      "recommendation_score": 1,
      "reason": "专家金标准种子。",
      "uncertainties": "不是真实模型结果。",
      "status": "proposed",
      "review_required": true
    },
    "DM_AGE#1": {
      "task_id": "DM_AGE",
      "assembly_group_id": "DM_DEMOGRAPHICS",
      "target_domain": "DM",
      "candidate_rank": 1,
      "source_refs": [
        {
          "ref_id": "dm_subject__AGE",
          "dataset": "dm_subject",
          "variable": "AGE",
          "role": "age"
        }
      ],
      "depends_on": [
        "DM_UNIQUE_SUBJECT_IDENTIFIER"
      ],
      "required": true,
      "semantic_decision": {
        "task_id": "DM_AGE",
        "target_domain": "DM",
        "output_kind": "variables",
        "target_variables": [
          "AGE"
        ],
        "score": 1,
        "evidence": "专家金标准种子。",
        "uncertainties": "不是真实模型结果。",
        "status": "proposed",
        "structure_valid": true
      },
      "steps": [
        {
          "step_id": "DM_AGE_STEP_01",
          "transform_id": "assign_no_ct",
          "source_ref_ids": [
            "dm_subject__AGE"
          ],
          "target_variables": [
            "AGE"
          ],
          "parameters": {},
          "parameter_sources": {}
        }
      ],
      "recommendation_score": 1,
      "reason": "专家金标准种子。",
      "uncertainties": "不是真实模型结果。",
      "status": "proposed",
      "review_required": true
    },
    "DM_AGE_UNIT#1": {
      "task_id": "DM_AGE_UNIT",
      "assembly_group_id": "DM_DEMOGRAPHICS",
      "target_domain": "DM",
      "candidate_rank": 1,
      "source_refs": [],
      "depends_on": [
        "DM_AGE"
      ],
      "required": true,
      "semantic_decision": {
        "task_id": "DM_AGE_UNIT",
        "target_domain": "DM",
        "output_kind": "variables",
        "target_variables": [
          "AGEU"
        ],
        "score": 1,
        "evidence": "专家金标准种子。",
        "uncertainties": "不是真实模型结果。",
        "status": "proposed",
        "structure_valid": true
      },
      "steps": [
        {
          "step_id": "DM_AGE_UNIT_STEP_01",
          "transform_id": "hardcode_ct",
          "source_ref_ids": [],
          "target_variables": [
            "AGEU"
          ],
          "parameters": {
            "value": "YEARS",
            "codelist_id": "AGEU"
          },
          "parameter_sources": {
            "value": {
              "source": "policy",
              "reference": "resolver:target_constant"
            },
            "codelist_id": {
              "source": "resource",
              "reference": "resolver:target_codelist"
            }
          }
        }
      ],
      "recommendation_score": 1,
      "reason": "专家金标准种子。",
      "uncertainties": "不是真实模型结果。",
      "status": "proposed",
      "review_required": true
    },
    "DM_SEX#1": {
      "task_id": "DM_SEX",
      "assembly_group_id": "DM_DEMOGRAPHICS",
      "target_domain": "DM",
      "candidate_rank": 1,
      "source_refs": [
        {
          "ref_id": "dm_subject__SEX",
          "dataset": "dm_subject",
          "variable": "SEX",
          "role": "sex"
        }
      ],
      "depends_on": [
        "DM_UNIQUE_SUBJECT_IDENTIFIER"
      ],
      "required": true,
      "semantic_decision": {
        "task_id": "DM_SEX",
        "target_domain": "DM",
        "output_kind": "variables",
        "target_variables": [
          "SEX"
        ],
        "score": 1,
        "evidence": "专家金标准种子。",
        "uncertainties": "不是真实模型结果。",
        "status": "proposed",
        "structure_valid": true
      },
      "steps": [
        {
          "step_id": "DM_SEX_STEP_01",
          "transform_id": "assign_ct",
          "source_ref_ids": [
            "dm_subject__SEX"
          ],
          "target_variables": [
            "SEX"
          ],
          "parameters": {
            "codelist_id": "SEX"
          },
          "parameter_sources": {
            "codelist_id": {
              "source": "resource",
              "reference": "resolver:target_codelist"
            }
          }
        }
      ],
      "recommendation_score": 1,
      "reason": "专家金标准种子。",
      "uncertainties": "不是真实模型结果。",
      "status": "proposed",
      "review_required": true
    },
    "DM_ETHNICITY#1": {
      "task_id": "DM_ETHNICITY",
      "assembly_group_id": "DM_DEMOGRAPHICS",
      "target_domain": "DM",
      "candidate_rank": 1,
      "source_refs": [
        {
          "ref_id": "dm_subject__ETHNIC",
          "dataset": "dm_subject",
          "variable": "ETHNIC",
          "role": "ethnicity"
        }
      ],
      "depends_on": [
        "DM_UNIQUE_SUBJECT_IDENTIFIER"
      ],
      "required": true,
      "semantic_decision": {
        "task_id": "DM_ETHNICITY",
        "target_domain": "DM",
        "output_kind": "variables",
        "target_variables": [
          "ETHNIC"
        ],
        "score": 1,
        "evidence": "专家金标准种子。",
        "uncertainties": "不是真实模型结果。",
        "status": "proposed",
        "structure_valid": true
      },
      "steps": [
        {
          "step_id": "DM_ETHNICITY_STEP_01",
          "transform_id": "assign_ct",
          "source_ref_ids": [
            "dm_subject__ETHNIC"
          ],
          "target_variables": [
            "ETHNIC"
          ],
          "parameters": {
            "codelist_id": "ETHNIC"
          },
          "parameter_sources": {
            "codelist_id": {
              "source": "resource",
              "reference": "resolver:target_codelist"
            }
          }
        }
      ],
      "recommendation_score": 1,
      "reason": "专家金标准种子。",
      "uncertainties": "不是真实模型结果。",
      "status": "proposed",
      "review_required": true
    },
    "DM_RACE#1": {
      "task_id": "DM_RACE",
      "assembly_group_id": "DM_DEMOGRAPHICS",
      "target_domain": "DM",
      "candidate_rank": 1,
      "source_refs": [
        {
          "ref_id": "dm_subject__RACE",
          "dataset": "dm_subject",
          "variable": "RACE",
          "role": "race"
        }
      ],
      "depends_on": [
        "DM_UNIQUE_SUBJECT_IDENTIFIER"
      ],
      "required": true,
      "semantic_decision": {
        "task_id": "DM_RACE",
        "target_domain": "DM",
        "output_kind": "variables",
        "target_variables": [
          "RACE"
        ],
        "score": 1,
        "evidence": "专家金标准种子。",
        "uncertainties": "不是真实模型结果。",
        "status": "proposed",
        "structure_valid": true
      },
      "steps": [
        {
          "step_id": "DM_RACE_STEP_01",
          "transform_id": "assign_ct",
          "source_ref_ids": [
            "dm_subject__RACE"
          ],
          "target_variables": [
            "RACE"
          ],
          "parameters": {
            "codelist_id": "RACE"
          },
          "parameter_sources": {
            "codelist_id": {
              "source": "resource",
              "reference": "resolver:target_codelist"
            }
          }
        }
      ],
      "recommendation_score": 1,
      "reason": "专家金标准种子。",
      "uncertainties": "不是真实模型结果。",
      "status": "proposed",
      "review_required": true
    },
    "DM_COUNTRY#1": {
      "task_id": "DM_COUNTRY",
      "assembly_group_id": "DM_DEMOGRAPHICS",
      "target_domain": "DM",
      "candidate_rank": 1,
      "source_refs": [
        {
          "ref_id": "dm_subject__COUNTRY",
          "dataset": "dm_subject",
          "variable": "COUNTRY",
          "role": "country"
        }
      ],
      "depends_on": [
        "DM_UNIQUE_SUBJECT_IDENTIFIER"
      ],
      "required": true,
      "semantic_decision": {
        "task_id": "DM_COUNTRY",
        "target_domain": "DM",
        "output_kind": "variables",
        "target_variables": [
          "COUNTRY"
        ],
        "score": 1,
        "evidence": "专家金标准种子。",
        "uncertainties": "不是真实模型结果。",
        "status": "proposed",
        "structure_valid": true
      },
      "steps": [
        {
          "step_id": "DM_COUNTRY_STEP_01",
          "transform_id": "assign_no_ct",
          "source_ref_ids": [
            "dm_subject__COUNTRY"
          ],
          "target_variables": [
            "COUNTRY"
          ],
          "parameters": {},
          "parameter_sources": {}
        }
      ],
      "recommendation_score": 1,
      "reason": "专家金标准种子。",
      "uncertainties": "不是真实模型结果。",
      "status": "proposed",
      "review_required": true
    },
    "DM_PLANNED_ARM_CODE#1": {
      "task_id": "DM_PLANNED_ARM_CODE",
      "assembly_group_id": "DM_TREATMENT",
      "target_domain": "DM",
      "candidate_rank": 1,
      "source_refs": [
        {
          "ref_id": "dm_subject__PLANNED_ARMCD",
          "dataset": "dm_subject",
          "variable": "PLANNED_ARMCD",
          "role": "planned_arm_code"
        }
      ],
      "depends_on": [
        "DM_UNIQUE_SUBJECT_IDENTIFIER"
      ],
      "required": true,
      "semantic_decision": {
        "task_id": "DM_PLANNED_ARM_CODE",
        "target_domain": "DM",
        "output_kind": "variables",
        "target_variables": [
          "ARMCD"
        ],
        "score": 1,
        "evidence": "专家金标准种子。",
        "uncertainties": "不是真实模型结果。",
        "status": "proposed",
        "structure_valid": true
      },
      "steps": [
        {
          "step_id": "DM_PLANNED_ARM_CODE_STEP_01",
          "transform_id": "assign_no_ct",
          "source_ref_ids": [
            "dm_subject__PLANNED_ARMCD"
          ],
          "target_variables": [
            "ARMCD"
          ],
          "parameters": {},
          "parameter_sources": {}
        }
      ],
      "recommendation_score": 1,
      "reason": "专家金标准种子。",
      "uncertainties": "不是真实模型结果。",
      "status": "proposed",
      "review_required": true
    },
    "DM_PLANNED_ARM#1": {
      "task_id": "DM_PLANNED_ARM",
      "assembly_group_id": "DM_TREATMENT",
      "target_domain": "DM",
      "candidate_rank": 1,
      "source_refs": [
        {
          "ref_id": "dm_subject__PLANNED_ARM",
          "dataset": "dm_subject",
          "variable": "PLANNED_ARM",
          "role": "planned_arm"
        }
      ],
      "depends_on": [
        "DM_UNIQUE_SUBJECT_IDENTIFIER"
      ],
      "required": true,
      "semantic_decision": {
        "task_id": "DM_PLANNED_ARM",
        "target_domain": "DM",
        "output_kind": "variables",
        "target_variables": [
          "ARM"
        ],
        "score": 1,
        "evidence": "专家金标准种子。",
        "uncertainties": "不是真实模型结果。",
        "status": "proposed",
        "structure_valid": true
      },
      "steps": [
        {
          "step_id": "DM_PLANNED_ARM_STEP_01",
          "transform_id": "assign_no_ct",
          "source_ref_ids": [
            "dm_subject__PLANNED_ARM"
          ],
          "target_variables": [
            "ARM"
          ],
          "parameters": {},
          "parameter_sources": {}
        }
      ],
      "recommendation_score": 1,
      "reason": "专家金标准种子。",
      "uncertainties": "不是真实模型结果。",
      "status": "proposed",
      "review_required": true
    },
    "DM_ACTUAL_ARM_CODE#1": {
      "task_id": "DM_ACTUAL_ARM_CODE",
      "assembly_group_id": "DM_TREATMENT",
      "target_domain": "DM",
      "candidate_rank": 1,
      "source_refs": [
        {
          "ref_id": "dm_subject__ACTUAL_ARMCD",
          "dataset": "dm_subject",
          "variable": "ACTUAL_ARMCD",
          "role": "actual_arm_code"
        }
      ],
      "depends_on": [
        "DM_UNIQUE_SUBJECT_IDENTIFIER"
      ],
      "required": true,
      "semantic_decision": {
        "task_id": "DM_ACTUAL_ARM_CODE",
        "target_domain": "DM",
        "output_kind": "variables",
        "target_variables": [
          "ACTARMCD"
        ],
        "score": 1,
        "evidence": "专家金标准种子。",
        "uncertainties": "不是真实模型结果。",
        "status": "proposed",
        "structure_valid": true
      },
      "steps": [
        {
          "step_id": "DM_ACTUAL_ARM_CODE_STEP_01",
          "transform_id": "assign_no_ct",
          "source_ref_ids": [
            "dm_subject__ACTUAL_ARMCD"
          ],
          "target_variables": [
            "ACTARMCD"
          ],
          "parameters": {},
          "parameter_sources": {}
        }
      ],
      "recommendation_score": 1,
      "reason": "专家金标准种子。",
      "uncertainties": "不是真实模型结果。",
      "status": "proposed",
      "review_required": true
    },
    "DM_ACTUAL_ARM#1": {
      "task_id": "DM_ACTUAL_ARM",
      "assembly_group_id": "DM_TREATMENT",
      "target_domain": "DM",
      "candidate_rank": 1,
      "source_refs": [
        {
          "ref_id": "dm_subject__ACTUAL_ARM",
          "dataset": "dm_subject",
          "variable": "ACTUAL_ARM",
          "role": "actual_arm"
        }
      ],
      "depends_on": [
        "DM_UNIQUE_SUBJECT_IDENTIFIER"
      ],
      "required": true,
      "semantic_decision": {
        "task_id": "DM_ACTUAL_ARM",
        "target_domain": "DM",
        "output_kind": "variables",
        "target_variables": [
          "ACTARM"
        ],
        "score": 1,
        "evidence": "专家金标准种子。",
        "uncertainties": "不是真实模型结果。",
        "status": "proposed",
        "structure_valid": true
      },
      "steps": [
        {
          "step_id": "DM_ACTUAL_ARM_STEP_01",
          "transform_id": "assign_no_ct",
          "source_ref_ids": [
            "dm_subject__ACTUAL_ARM"
          ],
          "target_variables": [
            "ACTARM"
          ],
          "parameters": {},
          "parameter_sources": {}
        }
      ],
      "recommendation_score": 1,
      "reason": "专家金标准种子。",
      "uncertainties": "不是真实模型结果。",
      "status": "proposed",
      "review_required": true
    },
    "AE_SOURCE_INTEGRATION#1": {
      "task_id": "AE_SOURCE_INTEGRATION",
      "assembly_group_id": "AE_SOURCE_INTEGRATION",
      "target_domain": "AE",
      "candidate_rank": 1,
      "source_refs": [
        {
          "ref_id": "ae_main__STUDY",
          "dataset": "ae_main",
          "variable": "STUDY",
          "role": "join_key"
        },
        {
          "ref_id": "ae_main__PATNUM",
          "dataset": "ae_main",
          "variable": "PATNUM",
          "role": "join_key"
        },
        {
          "ref_id": "ae_main__AEID",
          "dataset": "ae_main",
          "variable": "AEID",
          "role": "join_key"
        },
        {
          "ref_id": "sae_detail__STUDY",
          "dataset": "sae_detail",
          "variable": "STUDY",
          "role": "join_key"
        },
        {
          "ref_id": "sae_detail__PATNUM",
          "dataset": "sae_detail",
          "variable": "PATNUM",
          "role": "join_key"
        },
        {
          "ref_id": "sae_detail__AEID",
          "dataset": "sae_detail",
          "variable": "AEID",
          "role": "join_key"
        },
        {
          "ref_id": "sae_detail__AESHOSP",
          "dataset": "sae_detail",
          "variable": "AESHOSP",
          "role": "hospitalization_indicator"
        }
      ],
      "depends_on": [],
      "required": true,
      "semantic_decision": {
        "task_id": "AE_SOURCE_INTEGRATION",
        "target_domain": "AE",
        "output_kind": "dataset",
        "target_variables": [],
        "score": 1,
        "evidence": "专家金标准种子。",
        "uncertainties": "不是真实模型结果。",
        "status": "proposed",
        "structure_valid": true
      },
      "steps": [
        {
          "step_id": "AE_SOURCE_INTEGRATION_STEP_01",
          "transform_id": "merge_sources",
          "source_ref_ids": [
            "ae_main__STUDY",
            "ae_main__PATNUM",
            "ae_main__AEID",
            "sae_detail__STUDY",
            "sae_detail__PATNUM",
            "sae_detail__AEID",
            "sae_detail__AESHOSP"
          ],
          "target_variables": [],
          "parameters": {
            "left_dataset": "ae_main",
            "right_dataset": "sae_detail",
            "output_dataset": "ae_merged",
            "by": {
              "STUDY": "STUDY",
              "PATNUM": "PATNUM",
              "AEID": "AEID"
            },
            "relationship": "one-to-one",
            "join_type": "left",
            "select": [
              "AESHOSP"
            ],
            "conflict_policy": "error"
          },
          "parameter_sources": {
            "left_dataset": {
              "source": "derived",
              "reference": "resolver:source_relationship"
            },
            "right_dataset": {
              "source": "derived",
              "reference": "resolver:source_relationship"
            },
            "output_dataset": {
              "source": "policy",
              "reference": "resolver:source_relationship"
            },
            "by": {
              "source": "policy",
              "reference": "resolver:source_relationship"
            },
            "relationship": {
              "source": "policy",
              "reference": "resolver:source_relationship"
            },
            "join_type": {
              "source": "registry",
              "reference": "resolver:source_relationship"
            },
            "select": {
              "source": "derived",
              "reference": "resolver:source_relationship"
            },
            "conflict_policy": {
              "source": "registry",
              "reference": "resolver:source_relationship"
            }
          }
        }
      ],
      "recommendation_score": 1,
      "reason": "专家金标准种子。",
      "uncertainties": "不是真实模型结果。",
      "status": "proposed",
      "review_required": true
    },
    "AE_STUDY_IDENTIFIER#1": {
      "task_id": "AE_STUDY_IDENTIFIER",
      "assembly_group_id": "AE_CORE",
      "target_domain": "AE",
      "candidate_rank": 1,
      "source_refs": [
        {
          "ref_id": "ae_merged__STUDY",
          "dataset": "ae_merged",
          "variable": "STUDY",
          "role": "study_identifier"
        }
      ],
      "depends_on": [
        "AE_SOURCE_INTEGRATION",
        "DM_STUDY_IDENTIFIER"
      ],
      "required": true,
      "semantic_decision": {
        "task_id": "AE_STUDY_IDENTIFIER",
        "target_domain": "AE",
        "output_kind": "variables",
        "target_variables": [
          "STUDYID"
        ],
        "score": 1,
        "evidence": "专家金标准种子。",
        "uncertainties": "不是真实模型结果。",
        "status": "proposed",
        "structure_valid": true
      },
      "steps": [
        {
          "step_id": "AE_STUDY_IDENTIFIER_STEP_01",
          "transform_id": "assign_no_ct",
          "source_ref_ids": [
            "ae_merged__STUDY"
          ],
          "target_variables": [
            "STUDYID"
          ],
          "parameters": {},
          "parameter_sources": {}
        }
      ],
      "recommendation_score": 1,
      "reason": "专家金标准种子。",
      "uncertainties": "不是真实模型结果。",
      "status": "proposed",
      "review_required": true
    },
    "AE_DOMAIN_CONSTANT#1": {
      "task_id": "AE_DOMAIN_CONSTANT",
      "assembly_group_id": "AE_CORE",
      "target_domain": "AE",
      "candidate_rank": 1,
      "source_refs": [],
      "depends_on": [
        "AE_SOURCE_INTEGRATION"
      ],
      "required": true,
      "semantic_decision": {
        "task_id": "AE_DOMAIN_CONSTANT",
        "target_domain": "AE",
        "output_kind": "variables",
        "target_variables": [
          "DOMAIN"
        ],
        "score": 1,
        "evidence": "专家金标准种子。",
        "uncertainties": "不是真实模型结果。",
        "status": "proposed",
        "structure_valid": true
      },
      "steps": [
        {
          "step_id": "AE_DOMAIN_CONSTANT_STEP_01",
          "transform_id": "hardcode_no_ct",
          "source_ref_ids": [],
          "target_variables": [
            "DOMAIN"
          ],
          "parameters": {
            "value": "AE"
          },
          "parameter_sources": {
            "value": {
              "source": "policy",
              "reference": "resolver:target_constant"
            }
          }
        }
      ],
      "recommendation_score": 1,
      "reason": "专家金标准种子。",
      "uncertainties": "不是真实模型结果。",
      "status": "proposed",
      "review_required": true
    },
    "AE_UNIQUE_SUBJECT_IDENTIFIER#1": {
      "task_id": "AE_UNIQUE_SUBJECT_IDENTIFIER",
      "assembly_group_id": "AE_CORE",
      "target_domain": "AE",
      "candidate_rank": 1,
      "source_refs": [
        {
          "ref_id": "ae_merged__STUDY",
          "dataset": "ae_merged",
          "variable": "STUDY",
          "role": "study_identifier"
        },
        {
          "ref_id": "ae_merged__PATNUM",
          "dataset": "ae_merged",
          "variable": "PATNUM",
          "role": "subject_identifier"
        }
      ],
      "depends_on": [
        "AE_SOURCE_INTEGRATION",
        "DM_UNIQUE_SUBJECT_IDENTIFIER"
      ],
      "required": true,
      "semantic_decision": {
        "task_id": "AE_UNIQUE_SUBJECT_IDENTIFIER",
        "target_domain": "AE",
        "output_kind": "variables",
        "target_variables": [
          "USUBJID"
        ],
        "score": 1,
        "evidence": "专家金标准种子。",
        "uncertainties": "不是真实模型结果。",
        "status": "proposed",
        "structure_valid": true
      },
      "steps": [
        {
          "step_id": "AE_UNIQUE_SUBJECT_IDENTIFIER_STEP_01",
          "transform_id": "derive_usubjid",
          "source_ref_ids": [
            "ae_merged__STUDY",
            "ae_merged__PATNUM"
          ],
          "target_variables": [
            "USUBJID"
          ],
          "parameters": {
            "separator": "-"
          },
          "parameter_sources": {
            "separator": {
              "source": "policy",
              "reference": "resolver:identifier_policy"
            }
          }
        }
      ],
      "recommendation_score": 1,
      "reason": "专家金标准种子。",
      "uncertainties": "不是真实模型结果。",
      "status": "proposed",
      "review_required": true
    },
    "AE_REPORTED_TERM#1": {
      "task_id": "AE_REPORTED_TERM",
      "assembly_group_id": "AE_TERMS",
      "target_domain": "AE",
      "candidate_rank": 1,
      "source_refs": [
        {
          "ref_id": "ae_merged__AETERM",
          "dataset": "ae_merged",
          "variable": "AETERM",
          "role": "reported_term"
        }
      ],
      "depends_on": [
        "AE_SOURCE_INTEGRATION"
      ],
      "required": true,
      "semantic_decision": {
        "task_id": "AE_REPORTED_TERM",
        "target_domain": "AE",
        "output_kind": "variables",
        "target_variables": [
          "AETERM"
        ],
        "score": 1,
        "evidence": "专家金标准种子。",
        "uncertainties": "不是真实模型结果。",
        "status": "proposed",
        "structure_valid": true
      },
      "steps": [
        {
          "step_id": "AE_REPORTED_TERM_STEP_01",
          "transform_id": "assign_no_ct",
          "source_ref_ids": [
            "ae_merged__AETERM"
          ],
          "target_variables": [
            "AETERM"
          ],
          "parameters": {},
          "parameter_sources": {}
        }
      ],
      "recommendation_score": 1,
      "reason": "专家金标准种子。",
      "uncertainties": "不是真实模型结果。",
      "status": "proposed",
      "review_required": true
    },
    "AE_CODED_TERM#1": {
      "task_id": "AE_CODED_TERM",
      "assembly_group_id": "AE_TERMS",
      "target_domain": "AE",
      "candidate_rank": 1,
      "source_refs": [
        {
          "ref_id": "ae_merged__AEDECOD",
          "dataset": "ae_merged",
          "variable": "AEDECOD",
          "role": "coded_term"
        }
      ],
      "depends_on": [
        "AE_SOURCE_INTEGRATION"
      ],
      "required": true,
      "semantic_decision": {
        "task_id": "AE_CODED_TERM",
        "target_domain": "AE",
        "output_kind": "variables",
        "target_variables": [
          "AEDECOD"
        ],
        "score": 1,
        "evidence": "专家金标准种子。",
        "uncertainties": "不是真实模型结果。",
        "status": "proposed",
        "structure_valid": true
      },
      "steps": [
        {
          "step_id": "AE_CODED_TERM_STEP_01",
          "transform_id": "assign_no_ct",
          "source_ref_ids": [
            "ae_merged__AEDECOD"
          ],
          "target_variables": [
            "AEDECOD"
          ],
          "parameters": {},
          "parameter_sources": {}
        }
      ],
      "recommendation_score": 1,
      "reason": "专家金标准种子。",
      "uncertainties": "不是真实模型结果。",
      "status": "proposed",
      "review_required": true
    },
    "AE_BODY_SYSTEM#1": {
      "task_id": "AE_BODY_SYSTEM",
      "assembly_group_id": "AE_TERMS",
      "target_domain": "AE",
      "candidate_rank": 1,
      "source_refs": [
        {
          "ref_id": "ae_merged__AEBODSYS",
          "dataset": "ae_merged",
          "variable": "AEBODSYS",
          "role": "body_system"
        }
      ],
      "depends_on": [
        "AE_SOURCE_INTEGRATION"
      ],
      "required": true,
      "semantic_decision": {
        "task_id": "AE_BODY_SYSTEM",
        "target_domain": "AE",
        "output_kind": "variables",
        "target_variables": [
          "AEBODSYS"
        ],
        "score": 1,
        "evidence": "专家金标准种子。",
        "uncertainties": "不是真实模型结果。",
        "status": "proposed",
        "structure_valid": true
      },
      "steps": [
        {
          "step_id": "AE_BODY_SYSTEM_STEP_01",
          "transform_id": "normalize_case",
          "source_ref_ids": [
            "ae_merged__AEBODSYS"
          ],
          "target_variables": [
            "AEBODSYS"
          ],
          "parameters": {
            "case": "upper"
          },
          "parameter_sources": {
            "case": {
              "source": "reviewer",
              "reference": "gold_seed"
            }
          }
        }
      ],
      "recommendation_score": 1,
      "reason": "专家金标准种子。",
      "uncertainties": "不是真实模型结果。",
      "status": "proposed",
      "review_required": true
    },
    "AE_SEVERITY#1": {
      "task_id": "AE_SEVERITY",
      "assembly_group_id": "AE_SAFETY",
      "target_domain": "AE",
      "candidate_rank": 1,
      "source_refs": [
        {
          "ref_id": "ae_merged__AESEV",
          "dataset": "ae_merged",
          "variable": "AESEV",
          "role": "severity"
        }
      ],
      "depends_on": [
        "AE_SOURCE_INTEGRATION"
      ],
      "required": true,
      "semantic_decision": {
        "task_id": "AE_SEVERITY",
        "target_domain": "AE",
        "output_kind": "variables",
        "target_variables": [
          "AESEV"
        ],
        "score": 1,
        "evidence": "专家金标准种子。",
        "uncertainties": "不是真实模型结果。",
        "status": "proposed",
        "structure_valid": true
      },
      "steps": [
        {
          "step_id": "AE_SEVERITY_STEP_01",
          "transform_id": "assign_ct",
          "source_ref_ids": [
            "ae_merged__AESEV"
          ],
          "target_variables": [
            "AESEV"
          ],
          "parameters": {
            "codelist_id": "AESEV"
          },
          "parameter_sources": {
            "codelist_id": {
              "source": "resource",
              "reference": "resolver:target_codelist"
            }
          }
        }
      ],
      "recommendation_score": 1,
      "reason": "专家金标准种子。",
      "uncertainties": "不是真实模型结果。",
      "status": "proposed",
      "review_required": true
    },
    "AE_SERIOUS#1": {
      "task_id": "AE_SERIOUS",
      "assembly_group_id": "AE_SAFETY",
      "target_domain": "AE",
      "candidate_rank": 1,
      "source_refs": [
        {
          "ref_id": "ae_merged__AESER",
          "dataset": "ae_merged",
          "variable": "AESER",
          "role": "serious_indicator"
        }
      ],
      "depends_on": [
        "AE_SOURCE_INTEGRATION"
      ],
      "required": true,
      "semantic_decision": {
        "task_id": "AE_SERIOUS",
        "target_domain": "AE",
        "output_kind": "variables",
        "target_variables": [
          "AESER"
        ],
        "score": 1,
        "evidence": "专家金标准种子。",
        "uncertainties": "不是真实模型结果。",
        "status": "proposed",
        "structure_valid": true
      },
      "steps": [
        {
          "step_id": "AE_SERIOUS_STEP_01",
          "transform_id": "assign_ct",
          "source_ref_ids": [
            "ae_merged__AESER"
          ],
          "target_variables": [
            "AESER"
          ],
          "parameters": {
            "codelist_id": "NY"
          },
          "parameter_sources": {
            "codelist_id": {
              "source": "resource",
              "reference": "resolver:target_codelist"
            }
          }
        }
      ],
      "recommendation_score": 1,
      "reason": "专家金标准种子。",
      "uncertainties": "不是真实模型结果。",
      "status": "proposed",
      "review_required": true
    },
    "AE_HOSPITALIZATION#1": {
      "task_id": "AE_HOSPITALIZATION",
      "assembly_group_id": "AE_SAFETY",
      "target_domain": "AE",
      "candidate_rank": 1,
      "source_refs": [
        {
          "ref_id": "ae_merged__AESHOSP",
          "dataset": "ae_merged",
          "variable": "AESHOSP",
          "role": "hospitalization_indicator"
        }
      ],
      "depends_on": [
        "AE_SOURCE_INTEGRATION"
      ],
      "required": true,
      "semantic_decision": {
        "task_id": "AE_HOSPITALIZATION",
        "target_domain": "AE",
        "output_kind": "variables",
        "target_variables": [
          "AESHOSP"
        ],
        "score": 1,
        "evidence": "专家金标准种子。",
        "uncertainties": "不是真实模型结果。",
        "status": "proposed",
        "structure_valid": true
      },
      "steps": [
        {
          "step_id": "AE_HOSPITALIZATION_STEP_01",
          "transform_id": "assign_ct",
          "source_ref_ids": [
            "ae_merged__AESHOSP"
          ],
          "target_variables": [
            "AESHOSP"
          ],
          "parameters": {
            "codelist_id": "NY"
          },
          "parameter_sources": {
            "codelist_id": {
              "source": "resource",
              "reference": "resolver:target_codelist"
            }
          }
        }
      ],
      "recommendation_score": 1,
      "reason": "专家金标准种子。",
      "uncertainties": "不是真实模型结果。",
      "status": "proposed",
      "review_required": true
    },
    "AE_RELATIONSHIP#1": {
      "task_id": "AE_RELATIONSHIP",
      "assembly_group_id": "AE_REL_OUTCOME",
      "target_domain": "AE",
      "candidate_rank": 1,
      "source_refs": [
        {
          "ref_id": "ae_merged__AEREL",
          "dataset": "ae_merged",
          "variable": "AEREL",
          "role": "causality"
        }
      ],
      "depends_on": [
        "AE_SOURCE_INTEGRATION"
      ],
      "required": true,
      "semantic_decision": {
        "task_id": "AE_RELATIONSHIP",
        "target_domain": "AE",
        "output_kind": "variables",
        "target_variables": [
          "AEREL"
        ],
        "score": 1,
        "evidence": "专家金标准种子。",
        "uncertainties": "不是真实模型结果。",
        "status": "proposed",
        "structure_valid": true
      },
      "steps": [
        {
          "step_id": "AE_RELATIONSHIP_STEP_01",
          "transform_id": "assign_ct",
          "source_ref_ids": [
            "ae_merged__AEREL"
          ],
          "target_variables": [
            "AEREL"
          ],
          "parameters": {
            "codelist_id": "AEREL"
          },
          "parameter_sources": {
            "codelist_id": {
              "source": "resource",
              "reference": "resolver:target_codelist"
            }
          }
        }
      ],
      "recommendation_score": 1,
      "reason": "专家金标准种子。",
      "uncertainties": "不是真实模型结果。",
      "status": "proposed",
      "review_required": true
    },
    "AE_OUTCOME#1": {
      "task_id": "AE_OUTCOME",
      "assembly_group_id": "AE_REL_OUTCOME",
      "target_domain": "AE",
      "candidate_rank": 1,
      "source_refs": [
        {
          "ref_id": "ae_merged__AEOUTCOME",
          "dataset": "ae_merged",
          "variable": "AEOUTCOME",
          "role": "outcome"
        }
      ],
      "depends_on": [
        "AE_SOURCE_INTEGRATION"
      ],
      "required": true,
      "semantic_decision": {
        "task_id": "AE_OUTCOME",
        "target_domain": "AE",
        "output_kind": "variables",
        "target_variables": [
          "AEOUT"
        ],
        "score": 1,
        "evidence": "专家金标准种子。",
        "uncertainties": "不是真实模型结果。",
        "status": "proposed",
        "structure_valid": true
      },
      "steps": [
        {
          "step_id": "AE_OUTCOME_STEP_01",
          "transform_id": "assign_ct",
          "source_ref_ids": [
            "ae_merged__AEOUTCOME"
          ],
          "target_variables": [
            "AEOUT"
          ],
          "parameters": {
            "codelist_id": "AEOUT"
          },
          "parameter_sources": {
            "codelist_id": {
              "source": "resource",
              "reference": "resolver:target_codelist"
            }
          }
        }
      ],
      "recommendation_score": 1,
      "reason": "专家金标准种子。",
      "uncertainties": "不是真实模型结果。",
      "status": "proposed",
      "review_required": true
    },
    "AE_START_DATETIME#1": {
      "task_id": "AE_START_DATETIME",
      "assembly_group_id": "AE_START",
      "target_domain": "AE",
      "candidate_rank": 1,
      "source_refs": [
        {
          "ref_id": "ae_merged__AESTDAT",
          "dataset": "ae_merged",
          "variable": "AESTDAT",
          "role": "partial_date"
        },
        {
          "ref_id": "ae_merged__AESTTIM",
          "dataset": "ae_merged",
          "variable": "AESTTIM",
          "role": "optional_time"
        }
      ],
      "depends_on": [
        "AE_SOURCE_INTEGRATION",
        "AE_UNIQUE_SUBJECT_IDENTIFIER"
      ],
      "required": true,
      "semantic_decision": {
        "task_id": "AE_START_DATETIME",
        "target_domain": "AE",
        "output_kind": "variables",
        "target_variables": [
          "AESTDTC"
        ],
        "score": 1,
        "evidence": "专家金标准种子。",
        "uncertainties": "不是真实模型结果。",
        "status": "proposed",
        "structure_valid": true
      },
      "steps": [
        {
          "step_id": "AE_START_DATETIME_STEP_01",
          "transform_id": "to_iso8601_partial_datetime",
          "source_ref_ids": [
            "ae_merged__AESTDAT",
            "ae_merged__AESTTIM"
          ],
          "target_variables": [
            "AESTDTC"
          ],
          "parameters": {
            "formats": [
              "dd-mmm-yyyy",
              "H:M"
            ],
            "unknown_tokens": [
              "UNK",
              "UN"
            ]
          },
          "parameter_sources": {
            "formats": {
              "source": "policy",
              "reference": "resolver:approved_formats"
            },
            "unknown_tokens": {
              "source": "policy",
              "reference": "resolver:partial_date_tokens"
            }
          }
        }
      ],
      "recommendation_score": 1,
      "reason": "专家金标准种子。",
      "uncertainties": "不是真实模型结果。",
      "status": "proposed",
      "review_required": true
    },
    "AE_START_STUDY_DAY#1": {
      "task_id": "AE_START_STUDY_DAY",
      "assembly_group_id": "AE_START",
      "target_domain": "AE",
      "candidate_rank": 1,
      "source_refs": [],
      "depends_on": [
        "AE_START_DATETIME",
        "DM_REFERENCE_START"
      ],
      "required": true,
      "semantic_decision": {
        "task_id": "AE_START_STUDY_DAY",
        "target_domain": "AE",
        "output_kind": "variables",
        "target_variables": [
          "AESTDY"
        ],
        "score": 1,
        "evidence": "专家金标准种子。",
        "uncertainties": "不是真实模型结果。",
        "status": "proposed",
        "structure_valid": true
      },
      "steps": [
        {
          "step_id": "AE_START_STUDY_DAY_STEP_01",
          "transform_id": "derive_study_day",
          "source_ref_ids": [],
          "target_variables": [
            "AESTDY"
          ],
          "parameters": {
            "target_date": "AESTDTC",
            "reference_date": "RFSTDTC"
          },
          "parameter_sources": {
            "target_date": {
              "source": "derived",
              "reference": "resolver:study_day_policy"
            },
            "reference_date": {
              "source": "policy",
              "reference": "resolver:study_day_policy"
            }
          }
        }
      ],
      "recommendation_score": 1,
      "reason": "专家金标准种子。",
      "uncertainties": "不是真实模型结果。",
      "status": "proposed",
      "review_required": true
    },
    "AE_END_DATETIME#1": {
      "task_id": "AE_END_DATETIME",
      "assembly_group_id": "AE_END",
      "target_domain": "AE",
      "candidate_rank": 1,
      "source_refs": [
        {
          "ref_id": "ae_merged__AEENDDAT",
          "dataset": "ae_merged",
          "variable": "AEENDDAT",
          "role": "partial_date"
        },
        {
          "ref_id": "ae_merged__AEENDTIM",
          "dataset": "ae_merged",
          "variable": "AEENDTIM",
          "role": "optional_time"
        }
      ],
      "depends_on": [
        "AE_SOURCE_INTEGRATION",
        "AE_UNIQUE_SUBJECT_IDENTIFIER"
      ],
      "required": true,
      "semantic_decision": {
        "task_id": "AE_END_DATETIME",
        "target_domain": "AE",
        "output_kind": "variables",
        "target_variables": [
          "AEENDTC"
        ],
        "score": 1,
        "evidence": "专家金标准种子。",
        "uncertainties": "不是真实模型结果。",
        "status": "proposed",
        "structure_valid": true
      },
      "steps": [
        {
          "step_id": "AE_END_DATETIME_STEP_01",
          "transform_id": "to_iso8601_partial_datetime",
          "source_ref_ids": [
            "ae_merged__AEENDDAT",
            "ae_merged__AEENDTIM"
          ],
          "target_variables": [
            "AEENDTC"
          ],
          "parameters": {
            "formats": [
              "dd-mmm-yyyy",
              "H:M"
            ],
            "unknown_tokens": [
              "UNK",
              "UN"
            ]
          },
          "parameter_sources": {
            "formats": {
              "source": "policy",
              "reference": "resolver:approved_formats"
            },
            "unknown_tokens": {
              "source": "policy",
              "reference": "resolver:partial_date_tokens"
            }
          }
        }
      ],
      "recommendation_score": 1,
      "reason": "专家金标准种子。",
      "uncertainties": "不是真实模型结果。",
      "status": "proposed",
      "review_required": true
    },
    "AE_ONGOING_STATUS#1": {
      "task_id": "AE_ONGOING_STATUS",
      "assembly_group_id": "AE_END",
      "target_domain": "AE",
      "candidate_rank": 1,
      "source_refs": [
        {
          "ref_id": "ae_merged__AEENDDAT",
          "dataset": "ae_merged",
          "variable": "AEENDDAT",
          "role": "end_date"
        },
        {
          "ref_id": "ae_merged__AEONGO",
          "dataset": "ae_merged",
          "variable": "AEONGO",
          "role": "ongoing_indicator"
        }
      ],
      "depends_on": [
        "AE_SOURCE_INTEGRATION"
      ],
      "required": true,
      "semantic_decision": {
        "task_id": "AE_ONGOING_STATUS",
        "target_domain": "AE",
        "output_kind": "variables",
        "target_variables": [
          "AEENRF"
        ],
        "score": 1,
        "evidence": "专家金标准种子。",
        "uncertainties": "不是真实模型结果。",
        "status": "proposed",
        "structure_valid": true
      },
      "steps": [
        {
          "step_id": "AE_ONGOING_STATUS_STEP_01",
          "transform_id": "derive_ongoing_flag",
          "source_ref_ids": [
            "ae_merged__AEENDDAT",
            "ae_merged__AEONGO"
          ],
          "target_variables": [
            "AEENRF"
          ],
          "parameters": {
            "ongoing_value": "ONGOING",
            "affirmative_values": ["Y", "Yes"]
          },
          "parameter_sources": {
            "ongoing_value": {
              "source": "policy",
              "reference": "resolver:ongoing_policy"
            },
            "affirmative_values": {
              "source": "policy",
              "reference": "resolver:ongoing_policy"
            }
          }
        }
      ],
      "recommendation_score": 1,
      "reason": "专家金标准种子。",
      "uncertainties": "不是真实模型结果。",
      "status": "proposed",
      "review_required": true
    },
    "AE_END_STUDY_DAY#1": {
      "task_id": "AE_END_STUDY_DAY",
      "assembly_group_id": "AE_END",
      "target_domain": "AE",
      "candidate_rank": 1,
      "source_refs": [],
      "depends_on": [
        "AE_END_DATETIME",
        "DM_REFERENCE_START"
      ],
      "required": true,
      "semantic_decision": {
        "task_id": "AE_END_STUDY_DAY",
        "target_domain": "AE",
        "output_kind": "variables",
        "target_variables": [
          "AEENDY"
        ],
        "score": 1,
        "evidence": "专家金标准种子。",
        "uncertainties": "不是真实模型结果。",
        "status": "proposed",
        "structure_valid": true
      },
      "steps": [
        {
          "step_id": "AE_END_STUDY_DAY_STEP_01",
          "transform_id": "derive_study_day",
          "source_ref_ids": [],
          "target_variables": [
            "AEENDY"
          ],
          "parameters": {
            "target_date": "AEENDTC",
            "reference_date": "RFSTDTC"
          },
          "parameter_sources": {
            "target_date": {
              "source": "derived",
              "reference": "resolver:study_day_policy"
            },
            "reference_date": {
              "source": "policy",
              "reference": "resolver:study_day_policy"
            }
          }
        }
      ],
      "recommendation_score": 1,
      "reason": "专家金标准种子。",
      "uncertainties": "不是真实模型结果。",
      "status": "proposed",
      "review_required": true
    },
    "AE_SEQUENCE#1": {
      "task_id": "AE_SEQUENCE",
      "assembly_group_id": "AE_SEQUENCE",
      "target_domain": "AE",
      "candidate_rank": 1,
      "source_refs": [],
      "depends_on": [
        "AE_UNIQUE_SUBJECT_IDENTIFIER",
        "AE_REPORTED_TERM",
        "AE_CODED_TERM",
        "AE_START_DATETIME"
      ],
      "required": true,
      "semantic_decision": {
        "task_id": "AE_SEQUENCE",
        "target_domain": "AE",
        "output_kind": "variables",
        "target_variables": [
          "AESEQ"
        ],
        "score": 1,
        "evidence": "专家金标准种子。",
        "uncertainties": "不是真实模型结果。",
        "status": "proposed",
        "structure_valid": true
      },
      "steps": [
        {
          "step_id": "AE_SEQUENCE_STEP_01",
          "transform_id": "derive_sequence",
          "source_ref_ids": [],
          "target_variables": [
            "AESEQ"
          ],
          "parameters": {
            "record_variables": [
              "STUDYID",
              "USUBJID",
              "AESTDTC",
              "AETERM",
              "AEDECOD",
              ".SOURCE_ROW"
            ],
            "start_at": 1
          },
          "parameter_sources": {
            "record_variables": {
              "source": "policy",
              "reference": "resolver:sequence_policy"
            },
            "start_at": {
              "source": "policy",
              "reference": "resolver:sequence_policy"
            }
          }
        }
      ],
      "recommendation_score": 1,
      "reason": "专家金标准种子。",
      "uncertainties": "不是真实模型结果。",
      "status": "proposed",
      "review_required": true
    },
    "VS_STUDY_IDENTIFIER#1": {
      "task_id": "VS_STUDY_IDENTIFIER",
      "assembly_group_id": "VS_CORE",
      "target_domain": "VS",
      "candidate_rank": 1,
      "source_refs": [
        {
          "ref_id": "vs_mixed__STUDY",
          "dataset": "vs_mixed",
          "variable": "STUDY",
          "role": "study_identifier"
        }
      ],
      "depends_on": [
        "DM_STUDY_IDENTIFIER"
      ],
      "required": true,
      "semantic_decision": {
        "task_id": "VS_STUDY_IDENTIFIER",
        "target_domain": "VS",
        "output_kind": "variables",
        "target_variables": [
          "STUDYID"
        ],
        "score": 1,
        "evidence": "专家金标准种子。",
        "uncertainties": "不是真实模型结果。",
        "status": "proposed",
        "structure_valid": true
      },
      "steps": [
        {
          "step_id": "VS_STUDY_IDENTIFIER_STEP_01",
          "transform_id": "assign_no_ct",
          "source_ref_ids": [
            "vs_mixed__STUDY"
          ],
          "target_variables": [
            "STUDYID"
          ],
          "parameters": {},
          "parameter_sources": {}
        }
      ],
      "recommendation_score": 1,
      "reason": "专家金标准种子。",
      "uncertainties": "不是真实模型结果。",
      "status": "proposed",
      "review_required": true
    },
    "VS_DOMAIN_CONSTANT#1": {
      "task_id": "VS_DOMAIN_CONSTANT",
      "assembly_group_id": "VS_CORE",
      "target_domain": "VS",
      "candidate_rank": 1,
      "source_refs": [],
      "depends_on": [],
      "required": true,
      "semantic_decision": {
        "task_id": "VS_DOMAIN_CONSTANT",
        "target_domain": "VS",
        "output_kind": "variables",
        "target_variables": [
          "DOMAIN"
        ],
        "score": 1,
        "evidence": "专家金标准种子。",
        "uncertainties": "不是真实模型结果。",
        "status": "proposed",
        "structure_valid": true
      },
      "steps": [
        {
          "step_id": "VS_DOMAIN_CONSTANT_STEP_01",
          "transform_id": "hardcode_no_ct",
          "source_ref_ids": [],
          "target_variables": [
            "DOMAIN"
          ],
          "parameters": {
            "value": "VS"
          },
          "parameter_sources": {
            "value": {
              "source": "policy",
              "reference": "resolver:target_constant"
            }
          }
        }
      ],
      "recommendation_score": 1,
      "reason": "专家金标准种子。",
      "uncertainties": "不是真实模型结果。",
      "status": "proposed",
      "review_required": true
    },
    "VS_UNIQUE_SUBJECT_IDENTIFIER#1": {
      "task_id": "VS_UNIQUE_SUBJECT_IDENTIFIER",
      "assembly_group_id": "VS_CORE",
      "target_domain": "VS",
      "candidate_rank": 1,
      "source_refs": [
        {
          "ref_id": "vs_mixed__STUDY",
          "dataset": "vs_mixed",
          "variable": "STUDY",
          "role": "study_identifier"
        },
        {
          "ref_id": "vs_mixed__PATNUM",
          "dataset": "vs_mixed",
          "variable": "PATNUM",
          "role": "subject_identifier"
        }
      ],
      "depends_on": [
        "DM_UNIQUE_SUBJECT_IDENTIFIER"
      ],
      "required": true,
      "semantic_decision": {
        "task_id": "VS_UNIQUE_SUBJECT_IDENTIFIER",
        "target_domain": "VS",
        "output_kind": "variables",
        "target_variables": [
          "USUBJID"
        ],
        "score": 1,
        "evidence": "专家金标准种子。",
        "uncertainties": "不是真实模型结果。",
        "status": "proposed",
        "structure_valid": true
      },
      "steps": [
        {
          "step_id": "VS_UNIQUE_SUBJECT_IDENTIFIER_STEP_01",
          "transform_id": "derive_usubjid",
          "source_ref_ids": [
            "vs_mixed__STUDY",
            "vs_mixed__PATNUM"
          ],
          "target_variables": [
            "USUBJID"
          ],
          "parameters": {
            "separator": "-"
          },
          "parameter_sources": {
            "separator": {
              "source": "policy",
              "reference": "resolver:identifier_policy"
            }
          }
        }
      ],
      "recommendation_score": 1,
      "reason": "专家金标准种子。",
      "uncertainties": "不是真实模型结果。",
      "status": "proposed",
      "review_required": true
    },
    "VS_VISIT#1": {
      "task_id": "VS_VISIT",
      "assembly_group_id": "VS_CORE",
      "target_domain": "VS",
      "candidate_rank": 1,
      "source_refs": [
        {
          "ref_id": "vs_mixed__INSTANCE",
          "dataset": "vs_mixed",
          "variable": "INSTANCE",
          "role": "visit"
        }
      ],
      "depends_on": [
        "VS_UNIQUE_SUBJECT_IDENTIFIER"
      ],
      "required": true,
      "semantic_decision": {
        "task_id": "VS_VISIT",
        "target_domain": "VS",
        "output_kind": "variables",
        "target_variables": [
          "VISIT"
        ],
        "score": 1,
        "evidence": "专家金标准种子。",
        "uncertainties": "不是真实模型结果。",
        "status": "proposed",
        "structure_valid": true
      },
      "steps": [
        {
          "step_id": "VS_VISIT_STEP_01",
          "transform_id": "assign_no_ct",
          "source_ref_ids": [
            "vs_mixed__INSTANCE"
          ],
          "target_variables": [
            "VISIT"
          ],
          "parameters": {},
          "parameter_sources": {}
        }
      ],
      "recommendation_score": 1,
      "reason": "专家金标准种子。",
      "uncertainties": "不是真实模型结果。",
      "status": "proposed",
      "review_required": true
    },
    "VS_VISIT_NUMBER#1": {
      "task_id": "VS_VISIT_NUMBER",
      "assembly_group_id": "VS_CORE",
      "target_domain": "VS",
      "candidate_rank": 1,
      "source_refs": [
        {
          "ref_id": "vs_mixed__INSTANCE",
          "dataset": "vs_mixed",
          "variable": "INSTANCE",
          "role": "visit"
        }
      ],
      "depends_on": [
        "VS_VISIT"
      ],
      "required": true,
      "semantic_decision": {
        "task_id": "VS_VISIT_NUMBER",
        "target_domain": "VS",
        "output_kind": "variables",
        "target_variables": [
          "VISITNUM"
        ],
        "score": 1,
        "evidence": "专家金标准种子。",
        "uncertainties": "不是真实模型结果。",
        "status": "proposed",
        "structure_valid": true
      },
      "steps": [
        {
          "step_id": "VS_VISIT_NUMBER_STEP_01",
          "transform_id": "derive_visitnum",
          "source_ref_ids": [
            "vs_mixed__INSTANCE"
          ],
          "target_variables": [
            "VISITNUM"
          ],
          "parameters": {
            "visit_map_id": "trace_visits_v1"
          },
          "parameter_sources": {
            "visit_map_id": {
              "source": "resource",
              "reference": "resolver:visit_policy"
            }
          }
        }
      ],
      "recommendation_score": 1,
      "reason": "专家金标准种子。",
      "uncertainties": "不是真实模型结果。",
      "status": "proposed",
      "review_required": true
    },
    "VS_DATETIME#1": {
      "task_id": "VS_DATETIME",
      "assembly_group_id": "VS_CORE",
      "target_domain": "VS",
      "candidate_rank": 1,
      "source_refs": [
        {
          "ref_id": "vs_mixed__VTLD",
          "dataset": "vs_mixed",
          "variable": "VTLD",
          "role": "date"
        },
        {
          "ref_id": "vs_mixed__VSTIM",
          "dataset": "vs_mixed",
          "variable": "VSTIM",
          "role": "time"
        }
      ],
      "depends_on": [
        "VS_UNIQUE_SUBJECT_IDENTIFIER"
      ],
      "required": true,
      "semantic_decision": {
        "task_id": "VS_DATETIME",
        "target_domain": "VS",
        "output_kind": "variables",
        "target_variables": [
          "VSDTC"
        ],
        "score": 1,
        "evidence": "专家金标准种子。",
        "uncertainties": "不是真实模型结果。",
        "status": "proposed",
        "structure_valid": true
      },
      "steps": [
        {
          "step_id": "VS_DATETIME_STEP_01",
          "transform_id": "to_iso8601_datetime",
          "source_ref_ids": [
            "vs_mixed__VTLD",
            "vs_mixed__VSTIM"
          ],
          "target_variables": [
            "VSDTC"
          ],
          "parameters": {
            "formats": [
              "dd-mmm-yyyy",
              "H:M"
            ],
            "unknown_tokens": [
              "UNK",
              "UN"
            ]
          },
          "parameter_sources": {
            "formats": {
              "source": "policy",
              "reference": "resolver:approved_formats"
            },
            "unknown_tokens": {
              "source": "policy",
              "reference": "resolver:partial_date_tokens"
            }
          }
        }
      ],
      "recommendation_score": 1,
      "reason": "专家金标准种子。",
      "uncertainties": "不是真实模型结果。",
      "status": "proposed",
      "review_required": true
    },
    "VS_POSITION#1": {
      "task_id": "VS_POSITION",
      "assembly_group_id": "VS_CORE",
      "target_domain": "VS",
      "candidate_rank": 1,
      "source_refs": [
        {
          "ref_id": "vs_mixed__SUBPOS",
          "dataset": "vs_mixed",
          "variable": "SUBPOS",
          "role": "body_position"
        }
      ],
      "depends_on": [
        "VS_UNIQUE_SUBJECT_IDENTIFIER"
      ],
      "required": true,
      "semantic_decision": {
        "task_id": "VS_POSITION",
        "target_domain": "VS",
        "output_kind": "variables",
        "target_variables": [
          "VSPOS"
        ],
        "score": 1,
        "evidence": "专家金标准种子。",
        "uncertainties": "不是真实模型结果。",
        "status": "proposed",
        "structure_valid": true
      },
      "steps": [
        {
          "step_id": "VS_POSITION_STEP_01",
          "transform_id": "assign_ct",
          "source_ref_ids": [
            "vs_mixed__SUBPOS"
          ],
          "target_variables": [
            "VSPOS"
          ],
          "parameters": {
            "codelist_id": "VSPOS"
          },
          "parameter_sources": {
            "codelist_id": {
              "source": "resource",
              "reference": "resolver:target_codelist"
            }
          }
        }
      ],
      "recommendation_score": 1,
      "reason": "专家金标准种子。",
      "uncertainties": "不是真实模型结果。",
      "status": "proposed",
      "review_required": true
    },
    "VS_HEIGHT_RECORD#1": {
      "task_id": "VS_HEIGHT_RECORD",
      "assembly_group_id": "VS_HEIGHT",
      "target_domain": "VS",
      "candidate_rank": 1,
      "source_refs": [
        {
          "ref_id": "vs_mixed__HEIGHT",
          "dataset": "vs_mixed",
          "variable": "HEIGHT",
          "role": "result"
        },
        {
          "ref_id": "vs_mixed__HEIGHTU",
          "dataset": "vs_mixed",
          "variable": "HEIGHTU",
          "role": "original_unit"
        }
      ],
      "depends_on": [
        "VS_DATETIME"
      ],
      "required": true,
      "semantic_decision": {
        "task_id": "VS_HEIGHT_RECORD",
        "target_domain": "VS",
        "output_kind": "variables",
        "target_variables": [
          "VSTESTCD",
          "VSTEST",
          "VSORRES",
          "VSORRESU"
        ],
        "score": 1,
        "evidence": "专家金标准种子。",
        "uncertainties": "不是真实模型结果。",
        "status": "proposed",
        "structure_valid": true
      },
      "steps": [
        {
          "step_id": "VS_HEIGHT_RECORD_STEP_01",
          "transform_id": "transpose_findings",
          "source_ref_ids": [
            "vs_mixed__HEIGHT",
            "vs_mixed__HEIGHTU"
          ],
          "target_variables": [
            "VSTESTCD",
            "VSTEST",
            "VSORRES",
            "VSORRESU"
          ],
          "parameters": {
            "test_code": "HEIGHT",
            "test_name": "Height",
            "original_unit": null,
            "unit_source": "HEIGHTU"
          },
          "parameter_sources": {
            "test_code": {
              "source": "policy",
              "reference": "resolver:findings_policy"
            },
            "test_name": {
              "source": "policy",
              "reference": "resolver:findings_policy"
            },
            "original_unit": {
              "source": "policy",
              "reference": "resolver:findings_policy"
            },
            "unit_source": {
              "source": "policy",
              "reference": "resolver:findings_policy"
            }
          }
        }
      ],
      "recommendation_score": 1,
      "reason": "专家金标准种子。",
      "uncertainties": "不是真实模型结果。",
      "status": "proposed",
      "review_required": true
    },
    "VS_HEIGHT_STANDARDIZATION#1": {
      "task_id": "VS_HEIGHT_STANDARDIZATION",
      "assembly_group_id": "VS_HEIGHT",
      "target_domain": "VS",
      "candidate_rank": 1,
      "source_refs": [
        {
          "ref_id": "vs_mixed__HEIGHT",
          "dataset": "vs_mixed",
          "variable": "HEIGHT",
          "role": "result"
        },
        {
          "ref_id": "vs_mixed__HEIGHTU",
          "dataset": "vs_mixed",
          "variable": "HEIGHTU",
          "role": "original_unit"
        }
      ],
      "depends_on": [
        "VS_HEIGHT_RECORD"
      ],
      "required": true,
      "semantic_decision": {
        "task_id": "VS_HEIGHT_STANDARDIZATION",
        "target_domain": "VS",
        "output_kind": "variables",
        "target_variables": [
          "VSSTRESC",
          "VSSTRESN",
          "VSSTRESU"
        ],
        "score": 1,
        "evidence": "专家金标准种子。",
        "uncertainties": "不是真实模型结果。",
        "status": "proposed",
        "structure_valid": true
      },
      "steps": [
        {
          "step_id": "VS_HEIGHT_STANDARDIZATION_STEP_01",
          "transform_id": "standardize_unit",
          "source_ref_ids": [
            "vs_mixed__HEIGHT",
            "vs_mixed__HEIGHTU"
          ],
          "target_variables": [
            "VSSTRESC",
            "VSSTRESN",
            "VSSTRESU"
          ],
          "parameters": {
            "conversion_set_id": "vs_standard_v1",
            "target_unit": "cm"
          },
          "parameter_sources": {
            "conversion_set_id": {
              "source": "resource",
              "reference": "resolver:unit_policy"
            },
            "target_unit": {
              "source": "policy",
              "reference": "resolver:unit_policy"
            }
          }
        }
      ],
      "recommendation_score": 1,
      "reason": "专家金标准种子。",
      "uncertainties": "不是真实模型结果。",
      "status": "proposed",
      "review_required": true
    },
    "VS_WEIGHT_RECORD#1": {
      "task_id": "VS_WEIGHT_RECORD",
      "assembly_group_id": "VS_WEIGHT",
      "target_domain": "VS",
      "candidate_rank": 1,
      "source_refs": [
        {
          "ref_id": "vs_mixed__WEIGHT",
          "dataset": "vs_mixed",
          "variable": "WEIGHT",
          "role": "result"
        },
        {
          "ref_id": "vs_mixed__WEIGHTU",
          "dataset": "vs_mixed",
          "variable": "WEIGHTU",
          "role": "original_unit"
        }
      ],
      "depends_on": [
        "VS_DATETIME"
      ],
      "required": true,
      "semantic_decision": {
        "task_id": "VS_WEIGHT_RECORD",
        "target_domain": "VS",
        "output_kind": "variables",
        "target_variables": [
          "VSTESTCD",
          "VSTEST",
          "VSORRES",
          "VSORRESU"
        ],
        "score": 1,
        "evidence": "专家金标准种子。",
        "uncertainties": "不是真实模型结果。",
        "status": "proposed",
        "structure_valid": true
      },
      "steps": [
        {
          "step_id": "VS_WEIGHT_RECORD_STEP_01",
          "transform_id": "transpose_findings",
          "source_ref_ids": [
            "vs_mixed__WEIGHT",
            "vs_mixed__WEIGHTU"
          ],
          "target_variables": [
            "VSTESTCD",
            "VSTEST",
            "VSORRES",
            "VSORRESU"
          ],
          "parameters": {
            "test_code": "WEIGHT",
            "test_name": "Weight",
            "original_unit": null,
            "unit_source": "WEIGHTU"
          },
          "parameter_sources": {
            "test_code": {
              "source": "policy",
              "reference": "resolver:findings_policy"
            },
            "test_name": {
              "source": "policy",
              "reference": "resolver:findings_policy"
            },
            "original_unit": {
              "source": "policy",
              "reference": "resolver:findings_policy"
            },
            "unit_source": {
              "source": "policy",
              "reference": "resolver:findings_policy"
            }
          }
        }
      ],
      "recommendation_score": 1,
      "reason": "专家金标准种子。",
      "uncertainties": "不是真实模型结果。",
      "status": "proposed",
      "review_required": true
    },
    "VS_WEIGHT_STANDARDIZATION#1": {
      "task_id": "VS_WEIGHT_STANDARDIZATION",
      "assembly_group_id": "VS_WEIGHT",
      "target_domain": "VS",
      "candidate_rank": 1,
      "source_refs": [
        {
          "ref_id": "vs_mixed__WEIGHT",
          "dataset": "vs_mixed",
          "variable": "WEIGHT",
          "role": "result"
        },
        {
          "ref_id": "vs_mixed__WEIGHTU",
          "dataset": "vs_mixed",
          "variable": "WEIGHTU",
          "role": "original_unit"
        }
      ],
      "depends_on": [
        "VS_WEIGHT_RECORD"
      ],
      "required": true,
      "semantic_decision": {
        "task_id": "VS_WEIGHT_STANDARDIZATION",
        "target_domain": "VS",
        "output_kind": "variables",
        "target_variables": [
          "VSSTRESC",
          "VSSTRESN",
          "VSSTRESU"
        ],
        "score": 1,
        "evidence": "专家金标准种子。",
        "uncertainties": "不是真实模型结果。",
        "status": "proposed",
        "structure_valid": true
      },
      "steps": [
        {
          "step_id": "VS_WEIGHT_STANDARDIZATION_STEP_01",
          "transform_id": "standardize_unit",
          "source_ref_ids": [
            "vs_mixed__WEIGHT",
            "vs_mixed__WEIGHTU"
          ],
          "target_variables": [
            "VSSTRESC",
            "VSSTRESN",
            "VSSTRESU"
          ],
          "parameters": {
            "conversion_set_id": "vs_standard_v1",
            "target_unit": "kg"
          },
          "parameter_sources": {
            "conversion_set_id": {
              "source": "resource",
              "reference": "resolver:unit_policy"
            },
            "target_unit": {
              "source": "policy",
              "reference": "resolver:unit_policy"
            }
          }
        }
      ],
      "recommendation_score": 1,
      "reason": "专家金标准种子。",
      "uncertainties": "不是真实模型结果。",
      "status": "proposed",
      "review_required": true
    },
    "VS_TEMP_RECORD#1": {
      "task_id": "VS_TEMP_RECORD",
      "assembly_group_id": "VS_TEMP",
      "target_domain": "VS",
      "candidate_rank": 1,
      "source_refs": [
        {
          "ref_id": "vs_mixed__TEMP",
          "dataset": "vs_mixed",
          "variable": "TEMP",
          "role": "result"
        },
        {
          "ref_id": "vs_mixed__TEMPU",
          "dataset": "vs_mixed",
          "variable": "TEMPU",
          "role": "original_unit"
        }
      ],
      "depends_on": [
        "VS_DATETIME"
      ],
      "required": true,
      "semantic_decision": {
        "task_id": "VS_TEMP_RECORD",
        "target_domain": "VS",
        "output_kind": "variables",
        "target_variables": [
          "VSTESTCD",
          "VSTEST",
          "VSORRES",
          "VSORRESU"
        ],
        "score": 1,
        "evidence": "专家金标准种子。",
        "uncertainties": "不是真实模型结果。",
        "status": "proposed",
        "structure_valid": true
      },
      "steps": [
        {
          "step_id": "VS_TEMP_RECORD_STEP_01",
          "transform_id": "transpose_findings",
          "source_ref_ids": [
            "vs_mixed__TEMP",
            "vs_mixed__TEMPU"
          ],
          "target_variables": [
            "VSTESTCD",
            "VSTEST",
            "VSORRES",
            "VSORRESU"
          ],
          "parameters": {
            "test_code": "TEMP",
            "test_name": "Temperature",
            "original_unit": null,
            "unit_source": "TEMPU"
          },
          "parameter_sources": {
            "test_code": {
              "source": "policy",
              "reference": "resolver:findings_policy"
            },
            "test_name": {
              "source": "policy",
              "reference": "resolver:findings_policy"
            },
            "original_unit": {
              "source": "policy",
              "reference": "resolver:findings_policy"
            },
            "unit_source": {
              "source": "policy",
              "reference": "resolver:findings_policy"
            }
          }
        }
      ],
      "recommendation_score": 1,
      "reason": "专家金标准种子。",
      "uncertainties": "不是真实模型结果。",
      "status": "proposed",
      "review_required": true
    },
    "VS_TEMP_STANDARDIZATION#1": {
      "task_id": "VS_TEMP_STANDARDIZATION",
      "assembly_group_id": "VS_TEMP",
      "target_domain": "VS",
      "candidate_rank": 1,
      "source_refs": [
        {
          "ref_id": "vs_mixed__TEMP",
          "dataset": "vs_mixed",
          "variable": "TEMP",
          "role": "result"
        },
        {
          "ref_id": "vs_mixed__TEMPU",
          "dataset": "vs_mixed",
          "variable": "TEMPU",
          "role": "original_unit"
        }
      ],
      "depends_on": [
        "VS_TEMP_RECORD"
      ],
      "required": true,
      "semantic_decision": {
        "task_id": "VS_TEMP_STANDARDIZATION",
        "target_domain": "VS",
        "output_kind": "variables",
        "target_variables": [
          "VSSTRESC",
          "VSSTRESN",
          "VSSTRESU"
        ],
        "score": 1,
        "evidence": "专家金标准种子。",
        "uncertainties": "不是真实模型结果。",
        "status": "proposed",
        "structure_valid": true
      },
      "steps": [
        {
          "step_id": "VS_TEMP_STANDARDIZATION_STEP_01",
          "transform_id": "standardize_unit",
          "source_ref_ids": [
            "vs_mixed__TEMP",
            "vs_mixed__TEMPU"
          ],
          "target_variables": [
            "VSSTRESC",
            "VSSTRESN",
            "VSSTRESU"
          ],
          "parameters": {
            "conversion_set_id": "vs_standard_v1",
            "target_unit": "C"
          },
          "parameter_sources": {
            "conversion_set_id": {
              "source": "resource",
              "reference": "resolver:unit_policy"
            },
            "target_unit": {
              "source": "policy",
              "reference": "resolver:unit_policy"
            }
          }
        }
      ],
      "recommendation_score": 1,
      "reason": "专家金标准种子。",
      "uncertainties": "不是真实模型结果。",
      "status": "proposed",
      "review_required": true
    },
    "VS_SYSBP_RECORD#1": {
      "task_id": "VS_SYSBP_RECORD",
      "assembly_group_id": "VS_SYSBP",
      "target_domain": "VS",
      "candidate_rank": 1,
      "source_refs": [
        {
          "ref_id": "vs_mixed__SYS_BP",
          "dataset": "vs_mixed",
          "variable": "SYS_BP",
          "role": "result"
        },
        {
          "ref_id": "vs_mixed__SYS_BPU",
          "dataset": "vs_mixed",
          "variable": "SYS_BPU",
          "role": "original_unit"
        }
      ],
      "depends_on": [
        "VS_DATETIME"
      ],
      "required": true,
      "semantic_decision": {
        "task_id": "VS_SYSBP_RECORD",
        "target_domain": "VS",
        "output_kind": "variables",
        "target_variables": [
          "VSTESTCD",
          "VSTEST",
          "VSORRES",
          "VSORRESU"
        ],
        "score": 1,
        "evidence": "专家金标准种子。",
        "uncertainties": "不是真实模型结果。",
        "status": "proposed",
        "structure_valid": true
      },
      "steps": [
        {
          "step_id": "VS_SYSBP_RECORD_STEP_01",
          "transform_id": "transpose_findings",
          "source_ref_ids": [
            "vs_mixed__SYS_BP",
            "vs_mixed__SYS_BPU"
          ],
          "target_variables": [
            "VSTESTCD",
            "VSTEST",
            "VSORRES",
            "VSORRESU"
          ],
          "parameters": {
            "test_code": "SYSBP",
            "test_name": "Systolic Blood Pressure",
            "original_unit": null,
            "unit_source": "SYS_BPU"
          },
          "parameter_sources": {
            "test_code": {
              "source": "policy",
              "reference": "resolver:findings_policy"
            },
            "test_name": {
              "source": "policy",
              "reference": "resolver:findings_policy"
            },
            "original_unit": {
              "source": "policy",
              "reference": "resolver:findings_policy"
            },
            "unit_source": {
              "source": "policy",
              "reference": "resolver:findings_policy"
            }
          }
        }
      ],
      "recommendation_score": 1,
      "reason": "专家金标准种子。",
      "uncertainties": "不是真实模型结果。",
      "status": "proposed",
      "review_required": true
    },
    "VS_SYSBP_STANDARDIZATION#1": {
      "task_id": "VS_SYSBP_STANDARDIZATION",
      "assembly_group_id": "VS_SYSBP",
      "target_domain": "VS",
      "candidate_rank": 1,
      "source_refs": [
        {
          "ref_id": "vs_mixed__SYS_BP",
          "dataset": "vs_mixed",
          "variable": "SYS_BP",
          "role": "result"
        },
        {
          "ref_id": "vs_mixed__SYS_BPU",
          "dataset": "vs_mixed",
          "variable": "SYS_BPU",
          "role": "original_unit"
        }
      ],
      "depends_on": [
        "VS_SYSBP_RECORD"
      ],
      "required": true,
      "semantic_decision": {
        "task_id": "VS_SYSBP_STANDARDIZATION",
        "target_domain": "VS",
        "output_kind": "variables",
        "target_variables": [
          "VSSTRESC",
          "VSSTRESN",
          "VSSTRESU"
        ],
        "score": 1,
        "evidence": "专家金标准种子。",
        "uncertainties": "不是真实模型结果。",
        "status": "proposed",
        "structure_valid": true
      },
      "steps": [
        {
          "step_id": "VS_SYSBP_STANDARDIZATION_STEP_01",
          "transform_id": "standardize_unit",
          "source_ref_ids": [
            "vs_mixed__SYS_BP",
            "vs_mixed__SYS_BPU"
          ],
          "target_variables": [
            "VSSTRESC",
            "VSSTRESN",
            "VSSTRESU"
          ],
          "parameters": {
            "conversion_set_id": "vs_standard_v1",
            "target_unit": "mmHg"
          },
          "parameter_sources": {
            "conversion_set_id": {
              "source": "resource",
              "reference": "resolver:unit_policy"
            },
            "target_unit": {
              "source": "policy",
              "reference": "resolver:unit_policy"
            }
          }
        }
      ],
      "recommendation_score": 1,
      "reason": "专家金标准种子。",
      "uncertainties": "不是真实模型结果。",
      "status": "proposed",
      "review_required": true
    },
    "VS_DIABP_RECORD#1": {
      "task_id": "VS_DIABP_RECORD",
      "assembly_group_id": "VS_DIABP",
      "target_domain": "VS",
      "candidate_rank": 1,
      "source_refs": [
        {
          "ref_id": "vs_mixed__DIA_BP",
          "dataset": "vs_mixed",
          "variable": "DIA_BP",
          "role": "result"
        },
        {
          "ref_id": "vs_mixed__DIA_BPU",
          "dataset": "vs_mixed",
          "variable": "DIA_BPU",
          "role": "original_unit"
        }
      ],
      "depends_on": [
        "VS_DATETIME"
      ],
      "required": true,
      "semantic_decision": {
        "task_id": "VS_DIABP_RECORD",
        "target_domain": "VS",
        "output_kind": "variables",
        "target_variables": [
          "VSTESTCD",
          "VSTEST",
          "VSORRES",
          "VSORRESU"
        ],
        "score": 1,
        "evidence": "专家金标准种子。",
        "uncertainties": "不是真实模型结果。",
        "status": "proposed",
        "structure_valid": true
      },
      "steps": [
        {
          "step_id": "VS_DIABP_RECORD_STEP_01",
          "transform_id": "transpose_findings",
          "source_ref_ids": [
            "vs_mixed__DIA_BP",
            "vs_mixed__DIA_BPU"
          ],
          "target_variables": [
            "VSTESTCD",
            "VSTEST",
            "VSORRES",
            "VSORRESU"
          ],
          "parameters": {
            "test_code": "DIABP",
            "test_name": "Diastolic Blood Pressure",
            "original_unit": null,
            "unit_source": "DIA_BPU"
          },
          "parameter_sources": {
            "test_code": {
              "source": "policy",
              "reference": "resolver:findings_policy"
            },
            "test_name": {
              "source": "policy",
              "reference": "resolver:findings_policy"
            },
            "original_unit": {
              "source": "policy",
              "reference": "resolver:findings_policy"
            },
            "unit_source": {
              "source": "policy",
              "reference": "resolver:findings_policy"
            }
          }
        }
      ],
      "recommendation_score": 1,
      "reason": "专家金标准种子。",
      "uncertainties": "不是真实模型结果。",
      "status": "proposed",
      "review_required": true
    },
    "VS_DIABP_STANDARDIZATION#1": {
      "task_id": "VS_DIABP_STANDARDIZATION",
      "assembly_group_id": "VS_DIABP",
      "target_domain": "VS",
      "candidate_rank": 1,
      "source_refs": [
        {
          "ref_id": "vs_mixed__DIA_BP",
          "dataset": "vs_mixed",
          "variable": "DIA_BP",
          "role": "result"
        },
        {
          "ref_id": "vs_mixed__DIA_BPU",
          "dataset": "vs_mixed",
          "variable": "DIA_BPU",
          "role": "original_unit"
        }
      ],
      "depends_on": [
        "VS_DIABP_RECORD"
      ],
      "required": true,
      "semantic_decision": {
        "task_id": "VS_DIABP_STANDARDIZATION",
        "target_domain": "VS",
        "output_kind": "variables",
        "target_variables": [
          "VSSTRESC",
          "VSSTRESN",
          "VSSTRESU"
        ],
        "score": 1,
        "evidence": "专家金标准种子。",
        "uncertainties": "不是真实模型结果。",
        "status": "proposed",
        "structure_valid": true
      },
      "steps": [
        {
          "step_id": "VS_DIABP_STANDARDIZATION_STEP_01",
          "transform_id": "standardize_unit",
          "source_ref_ids": [
            "vs_mixed__DIA_BP",
            "vs_mixed__DIA_BPU"
          ],
          "target_variables": [
            "VSSTRESC",
            "VSSTRESN",
            "VSSTRESU"
          ],
          "parameters": {
            "conversion_set_id": "vs_standard_v1",
            "target_unit": "mmHg"
          },
          "parameter_sources": {
            "conversion_set_id": {
              "source": "resource",
              "reference": "resolver:unit_policy"
            },
            "target_unit": {
              "source": "policy",
              "reference": "resolver:unit_policy"
            }
          }
        }
      ],
      "recommendation_score": 1,
      "reason": "专家金标准种子。",
      "uncertainties": "不是真实模型结果。",
      "status": "proposed",
      "review_required": true
    },
    "VS_PULSE_RECORD#1": {
      "task_id": "VS_PULSE_RECORD",
      "assembly_group_id": "VS_PULSE",
      "target_domain": "VS",
      "candidate_rank": 1,
      "source_refs": [
        {
          "ref_id": "vs_mixed__PULSE",
          "dataset": "vs_mixed",
          "variable": "PULSE",
          "role": "result"
        },
        {
          "ref_id": "vs_mixed__PULSEU",
          "dataset": "vs_mixed",
          "variable": "PULSEU",
          "role": "original_unit"
        }
      ],
      "depends_on": [
        "VS_DATETIME"
      ],
      "required": true,
      "semantic_decision": {
        "task_id": "VS_PULSE_RECORD",
        "target_domain": "VS",
        "output_kind": "variables",
        "target_variables": [
          "VSTESTCD",
          "VSTEST",
          "VSORRES",
          "VSORRESU"
        ],
        "score": 1,
        "evidence": "专家金标准种子。",
        "uncertainties": "不是真实模型结果。",
        "status": "proposed",
        "structure_valid": true
      },
      "steps": [
        {
          "step_id": "VS_PULSE_RECORD_STEP_01",
          "transform_id": "transpose_findings",
          "source_ref_ids": [
            "vs_mixed__PULSE",
            "vs_mixed__PULSEU"
          ],
          "target_variables": [
            "VSTESTCD",
            "VSTEST",
            "VSORRES",
            "VSORRESU"
          ],
          "parameters": {
            "test_code": "PULSE",
            "test_name": "Pulse Rate",
            "original_unit": null,
            "unit_source": "PULSEU"
          },
          "parameter_sources": {
            "test_code": {
              "source": "policy",
              "reference": "resolver:findings_policy"
            },
            "test_name": {
              "source": "policy",
              "reference": "resolver:findings_policy"
            },
            "original_unit": {
              "source": "policy",
              "reference": "resolver:findings_policy"
            },
            "unit_source": {
              "source": "policy",
              "reference": "resolver:findings_policy"
            }
          }
        }
      ],
      "recommendation_score": 1,
      "reason": "专家金标准种子。",
      "uncertainties": "不是真实模型结果。",
      "status": "proposed",
      "review_required": true
    },
    "VS_PULSE_STANDARDIZATION#1": {
      "task_id": "VS_PULSE_STANDARDIZATION",
      "assembly_group_id": "VS_PULSE",
      "target_domain": "VS",
      "candidate_rank": 1,
      "source_refs": [
        {
          "ref_id": "vs_mixed__PULSE",
          "dataset": "vs_mixed",
          "variable": "PULSE",
          "role": "result"
        },
        {
          "ref_id": "vs_mixed__PULSEU",
          "dataset": "vs_mixed",
          "variable": "PULSEU",
          "role": "original_unit"
        }
      ],
      "depends_on": [
        "VS_PULSE_RECORD"
      ],
      "required": true,
      "semantic_decision": {
        "task_id": "VS_PULSE_STANDARDIZATION",
        "target_domain": "VS",
        "output_kind": "variables",
        "target_variables": [
          "VSSTRESC",
          "VSSTRESN",
          "VSSTRESU"
        ],
        "score": 1,
        "evidence": "专家金标准种子。",
        "uncertainties": "不是真实模型结果。",
        "status": "proposed",
        "structure_valid": true
      },
      "steps": [
        {
          "step_id": "VS_PULSE_STANDARDIZATION_STEP_01",
          "transform_id": "standardize_unit",
          "source_ref_ids": [
            "vs_mixed__PULSE",
            "vs_mixed__PULSEU"
          ],
          "target_variables": [
            "VSSTRESC",
            "VSSTRESN",
            "VSSTRESU"
          ],
          "parameters": {
            "conversion_set_id": "vs_standard_v1",
            "target_unit": "beats/min"
          },
          "parameter_sources": {
            "conversion_set_id": {
              "source": "resource",
              "reference": "resolver:unit_policy"
            },
            "target_unit": {
              "source": "policy",
              "reference": "resolver:unit_policy"
            }
          }
        }
      ],
      "recommendation_score": 1,
      "reason": "专家金标准种子。",
      "uncertainties": "不是真实模型结果。",
      "status": "proposed",
      "review_required": true
    },
    "VS_SEQUENCE#1": {
      "task_id": "VS_SEQUENCE",
      "assembly_group_id": "VS_POST_DERIVATIONS",
      "target_domain": "VS",
      "candidate_rank": 1,
      "source_refs": [],
      "depends_on": [
        "VS_HEIGHT_RECORD",
        "VS_WEIGHT_RECORD",
        "VS_TEMP_RECORD",
        "VS_SYSBP_RECORD",
        "VS_DIABP_RECORD",
        "VS_PULSE_RECORD"
      ],
      "required": true,
      "semantic_decision": {
        "task_id": "VS_SEQUENCE",
        "target_domain": "VS",
        "output_kind": "variables",
        "target_variables": [
          "VSSEQ"
        ],
        "score": 1,
        "evidence": "专家金标准种子。",
        "uncertainties": "不是真实模型结果。",
        "status": "proposed",
        "structure_valid": true
      },
      "steps": [
        {
          "step_id": "VS_SEQUENCE_STEP_01",
          "transform_id": "derive_sequence",
          "source_ref_ids": [],
          "target_variables": [
            "VSSEQ"
          ],
          "parameters": {
            "record_variables": [
              "STUDYID",
              "USUBJID",
              "VSDTC",
              "VSTESTCD",
              "VSPOS",
              "VISITNUM",
              ".SOURCE_ROW"
            ],
            "start_at": 1
          },
          "parameter_sources": {
            "record_variables": {
              "source": "policy",
              "reference": "resolver:sequence_policy"
            },
            "start_at": {
              "source": "policy",
              "reference": "resolver:sequence_policy"
            }
          }
        }
      ],
      "recommendation_score": 1,
      "reason": "专家金标准种子。",
      "uncertainties": "不是真实模型结果。",
      "status": "proposed",
      "review_required": true
    },
    "VS_STUDY_DAY#1": {
      "task_id": "VS_STUDY_DAY",
      "assembly_group_id": "VS_POST_DERIVATIONS",
      "target_domain": "VS",
      "candidate_rank": 1,
      "source_refs": [],
      "depends_on": [
        "VS_DATETIME",
        "DM_REFERENCE_START"
      ],
      "required": true,
      "semantic_decision": {
        "task_id": "VS_STUDY_DAY",
        "target_domain": "VS",
        "output_kind": "variables",
        "target_variables": [
          "VSDY"
        ],
        "score": 1,
        "evidence": "专家金标准种子。",
        "uncertainties": "不是真实模型结果。",
        "status": "proposed",
        "structure_valid": true
      },
      "steps": [
        {
          "step_id": "VS_STUDY_DAY_STEP_01",
          "transform_id": "derive_study_day",
          "source_ref_ids": [],
          "target_variables": [
            "VSDY"
          ],
          "parameters": {
            "target_date": "VSDTC",
            "reference_date": "RFSTDTC"
          },
          "parameter_sources": {
            "target_date": {
              "source": "derived",
              "reference": "resolver:study_day_policy"
            },
            "reference_date": {
              "source": "policy",
              "reference": "resolver:study_day_policy"
            }
          }
        }
      ],
      "recommendation_score": 1,
      "reason": "专家金标准种子。",
      "uncertainties": "不是真实模型结果。",
      "status": "proposed",
      "review_required": true
    },
    "VS_BASELINE_FLAG#1": {
      "task_id": "VS_BASELINE_FLAG",
      "assembly_group_id": "VS_POST_DERIVATIONS",
      "target_domain": "VS",
      "candidate_rank": 1,
      "source_refs": [],
      "depends_on": [
        "VS_DATETIME",
        "VS_VISIT",
        "DM_REFERENCE_START",
        "VS_HEIGHT_RECORD",
        "VS_WEIGHT_RECORD",
        "VS_TEMP_RECORD",
        "VS_SYSBP_RECORD",
        "VS_DIABP_RECORD",
        "VS_PULSE_RECORD"
      ],
      "required": true,
      "semantic_decision": {
        "task_id": "VS_BASELINE_FLAG",
        "target_domain": "VS",
        "output_kind": "variables",
        "target_variables": [
          "VSBLFL"
        ],
        "score": 1,
        "evidence": "专家金标准种子。",
        "uncertainties": "不是真实模型结果。",
        "status": "proposed",
        "structure_valid": true
      },
      "steps": [
        {
          "step_id": "VS_BASELINE_FLAG_STEP_01",
          "transform_id": "derive_baseline_flag",
          "source_ref_ids": [],
          "target_variables": [
            "VSBLFL"
          ],
          "parameters": {
            "reference_date": "RFSTDTC",
            "baseline_visits": [
              "Screening 1"
            ],
            "baseline_timepoints": []
          },
          "parameter_sources": {
            "reference_date": {
              "source": "policy",
              "reference": "resolver:baseline_policy"
            },
            "baseline_visits": {
              "source": "policy",
              "reference": "resolver:baseline_policy"
            },
            "baseline_timepoints": {
              "source": "policy",
              "reference": "resolver:baseline_policy"
            }
          }
        }
      ],
      "recommendation_score": 1,
      "reason": "专家金标准种子。",
      "uncertainties": "不是真实模型结果。",
      "status": "proposed",
      "review_required": true
    }
  },
  "failures": [],
  "dependency_blocks": [],
  "available_task_ids": ["DM_STUDY_IDENTIFIER", "DM_DOMAIN_CONSTANT", "DM_UNIQUE_SUBJECT_IDENTIFIER", "DM_SUBJECT_IDENTIFIER", "DM_SITE_IDENTIFIER", "DM_REFERENCE_START", "DM_CONSENT", "DM_AGE", "DM_AGE_UNIT", "DM_SEX", "DM_ETHNICITY", "DM_RACE", "DM_COUNTRY", "DM_PLANNED_ARM_CODE", "DM_PLANNED_ARM", "DM_ACTUAL_ARM_CODE", "DM_ACTUAL_ARM", "AE_SOURCE_INTEGRATION", "AE_STUDY_IDENTIFIER", "AE_DOMAIN_CONSTANT", "AE_UNIQUE_SUBJECT_IDENTIFIER", "AE_REPORTED_TERM", "AE_CODED_TERM", "AE_BODY_SYSTEM", "AE_SEVERITY", "AE_SERIOUS", "AE_HOSPITALIZATION", "AE_RELATIONSHIP", "AE_OUTCOME", "AE_START_DATETIME", "AE_START_STUDY_DAY", "AE_END_DATETIME", "AE_ONGOING_STATUS", "AE_END_STUDY_DAY", "AE_SEQUENCE", "VS_STUDY_IDENTIFIER", "VS_DOMAIN_CONSTANT", "VS_UNIQUE_SUBJECT_IDENTIFIER", "VS_VISIT", "VS_VISIT_NUMBER", "VS_DATETIME", "VS_POSITION", "VS_HEIGHT_RECORD", "VS_HEIGHT_STANDARDIZATION", "VS_WEIGHT_RECORD", "VS_WEIGHT_STANDARDIZATION", "VS_TEMP_RECORD", "VS_TEMP_STANDARDIZATION", "VS_SYSBP_RECORD", "VS_SYSBP_STANDARDIZATION", "VS_DIABP_RECORD", "VS_DIABP_STANDARDIZATION", "VS_PULSE_RECORD", "VS_PULSE_STANDARDIZATION", "VS_SEQUENCE", "VS_STUDY_DAY", "VS_BASELINE_FLAG"],
  "stage": "assembly"
}
