{
  "valid": {
    "DM_STUDY_IDENTIFIER#1": {
      "task_id": "DM_STUDY_IDENTIFIER",
      "candidate_rank": 1,
      "transform_id": "assign_no_ct",
      "source_ref_ids": [
        "dm_subject__STUDY"
      ],
      "score": 1,
      "reason": "专家金标准种子。",
      "uncertainties": "不是真实模型结果。",
      "status": "proposed",
      "review_required": true,
      "structure_valid": true
    },
    "DM_DOMAIN_CONSTANT#1": {
      "task_id": "DM_DOMAIN_CONSTANT",
      "candidate_rank": 1,
      "transform_id": "hardcode_no_ct",
      "source_ref_ids": [],
      "score": 1,
      "reason": "专家金标准种子。",
      "uncertainties": "不是真实模型结果。",
      "status": "proposed",
      "review_required": true,
      "structure_valid": true
    },
    "DM_UNIQUE_SUBJECT_IDENTIFIER#1": {
      "task_id": "DM_UNIQUE_SUBJECT_IDENTIFIER",
      "candidate_rank": 1,
      "transform_id": "derive_usubjid",
      "source_ref_ids": [
        "dm_subject__STUDY",
        "dm_subject__PATNUM"
      ],
      "score": 1,
      "reason": "专家金标准种子。",
      "uncertainties": "不是真实模型结果。",
      "status": "proposed",
      "review_required": true,
      "structure_valid": true
    },
    "DM_SUBJECT_IDENTIFIER#1": {
      "task_id": "DM_SUBJECT_IDENTIFIER",
      "candidate_rank": 1,
      "transform_id": "assign_no_ct",
      "source_ref_ids": [
        "dm_subject__PATNUM"
      ],
      "score": 1,
      "reason": "专家金标准种子。",
      "uncertainties": "不是真实模型结果。",
      "status": "proposed",
      "review_required": true,
      "structure_valid": true
    },
    "DM_SITE_IDENTIFIER#1": {
      "task_id": "DM_SITE_IDENTIFIER",
      "candidate_rank": 1,
      "transform_id": "extract_delimited_part",
      "source_ref_ids": [
        "dm_subject__PATNUM"
      ],
      "score": 1,
      "reason": "专家金标准种子。",
      "uncertainties": "不是真实模型结果。",
      "status": "proposed",
      "review_required": true,
      "structure_valid": true
    },
    "DM_REFERENCE_START#1": {
      "task_id": "DM_REFERENCE_START",
      "candidate_rank": 1,
      "transform_id": "derive_reference_datetime",
      "source_ref_ids": [
        "ex_a_raw__EXSTDAT",
        "ex_a_raw__EXSTTIM",
        "ex_b_raw__DOSE_DATE",
        "ex_b_raw__DOSE_TIME"
      ],
      "score": 1,
      "reason": "专家金标准种子。",
      "uncertainties": "不是真实模型结果。",
      "status": "proposed",
      "review_required": true,
      "structure_valid": true
    },
    "DM_CONSENT#1": {
      "task_id": "DM_CONSENT",
      "candidate_rank": 1,
      "transform_id": "to_iso8601_date",
      "source_ref_ids": [
        "dm_subject__IC_DT"
      ],
      "score": 1,
      "reason": "专家金标准种子。",
      "uncertainties": "不是真实模型结果。",
      "status": "proposed",
      "review_required": true,
      "structure_valid": true
    },
    "DM_AGE#1": {
      "task_id": "DM_AGE",
      "candidate_rank": 1,
      "transform_id": "assign_no_ct",
      "source_ref_ids": [
        "dm_subject__AGE"
      ],
      "score": 1,
      "reason": "专家金标准种子。",
      "uncertainties": "不是真实模型结果。",
      "status": "proposed",
      "review_required": true,
      "structure_valid": true
    },
    "DM_AGE_UNIT#1": {
      "task_id": "DM_AGE_UNIT",
      "candidate_rank": 1,
      "transform_id": "hardcode_ct",
      "source_ref_ids": [],
      "score": 1,
      "reason": "专家金标准种子。",
      "uncertainties": "不是真实模型结果。",
      "status": "proposed",
      "review_required": true,
      "structure_valid": true
    },
    "DM_SEX#1": {
      "task_id": "DM_SEX",
      "candidate_rank": 1,
      "transform_id": "assign_ct",
      "source_ref_ids": [
        "dm_subject__SEX"
      ],
      "score": 1,
      "reason": "专家金标准种子。",
      "uncertainties": "不是真实模型结果。",
      "status": "proposed",
      "review_required": true,
      "structure_valid": true
    },
    "DM_ETHNICITY#1": {
      "task_id": "DM_ETHNICITY",
      "candidate_rank": 1,
      "transform_id": "assign_ct",
      "source_ref_ids": [
        "dm_subject__ETHNIC"
      ],
      "score": 1,
      "reason": "专家金标准种子。",
      "uncertainties": "不是真实模型结果。",
      "status": "proposed",
      "review_required": true,
      "structure_valid": true
    },
    "DM_RACE#1": {
      "task_id": "DM_RACE",
      "candidate_rank": 1,
      "transform_id": "assign_ct",
      "source_ref_ids": [
        "dm_subject__RACE"
      ],
      "score": 1,
      "reason": "专家金标准种子。",
      "uncertainties": "不是真实模型结果。",
      "status": "proposed",
      "review_required": true,
      "structure_valid": true
    },
    "DM_COUNTRY#1": {
      "task_id": "DM_COUNTRY",
      "candidate_rank": 1,
      "transform_id": "assign_no_ct",
      "source_ref_ids": [
        "dm_subject__COUNTRY"
      ],
      "score": 1,
      "reason": "专家金标准种子。",
      "uncertainties": "不是真实模型结果。",
      "status": "proposed",
      "review_required": true,
      "structure_valid": true
    },
    "DM_PLANNED_ARM_CODE#1": {
      "task_id": "DM_PLANNED_ARM_CODE",
      "candidate_rank": 1,
      "transform_id": "assign_no_ct",
      "source_ref_ids": [
        "dm_subject__PLANNED_ARMCD"
      ],
      "score": 1,
      "reason": "专家金标准种子。",
      "uncertainties": "不是真实模型结果。",
      "status": "proposed",
      "review_required": true,
      "structure_valid": true
    },
    "DM_PLANNED_ARM#1": {
      "task_id": "DM_PLANNED_ARM",
      "candidate_rank": 1,
      "transform_id": "assign_no_ct",
      "source_ref_ids": [
        "dm_subject__PLANNED_ARM"
      ],
      "score": 1,
      "reason": "专家金标准种子。",
      "uncertainties": "不是真实模型结果。",
      "status": "proposed",
      "review_required": true,
      "structure_valid": true
    },
    "DM_ACTUAL_ARM_CODE#1": {
      "task_id": "DM_ACTUAL_ARM_CODE",
      "candidate_rank": 1,
      "transform_id": "assign_no_ct",
      "source_ref_ids": [
        "dm_subject__ACTUAL_ARMCD"
      ],
      "score": 1,
      "reason": "专家金标准种子。",
      "uncertainties": "不是真实模型结果。",
      "status": "proposed",
      "review_required": true,
      "structure_valid": true
    },
    "DM_ACTUAL_ARM#1": {
      "task_id": "DM_ACTUAL_ARM",
      "candidate_rank": 1,
      "transform_id": "assign_no_ct",
      "source_ref_ids": [
        "dm_subject__ACTUAL_ARM"
      ],
      "score": 1,
      "reason": "专家金标准种子。",
      "uncertainties": "不是真实模型结果。",
      "status": "proposed",
      "review_required": true,
      "structure_valid": true
    },
    "AE_SOURCE_INTEGRATION#1": {
      "task_id": "AE_SOURCE_INTEGRATION",
      "candidate_rank": 1,
      "transform_id": "merge_sources",
      "source_ref_ids": [
        "ae_main__STUDY",
        "ae_main__PATNUM",
        "ae_main__AEID",
        "sae_detail__STUDY",
        "sae_detail__PATNUM",
        "sae_detail__AEID",
        "sae_detail__AESHOSP"
      ],
      "score": 1,
      "reason": "专家金标准种子。",
      "uncertainties": "不是真实模型结果。",
      "status": "proposed",
      "review_required": true,
      "structure_valid": true
    },
    "AE_STUDY_IDENTIFIER#1": {
      "task_id": "AE_STUDY_IDENTIFIER",
      "candidate_rank": 1,
      "transform_id": "assign_no_ct",
      "source_ref_ids": [
        "ae_merged__STUDY"
      ],
      "score": 1,
      "reason": "专家金标准种子。",
      "uncertainties": "不是真实模型结果。",
      "status": "proposed",
      "review_required": true,
      "structure_valid": true
    },
    "AE_DOMAIN_CONSTANT#1": {
      "task_id": "AE_DOMAIN_CONSTANT",
      "candidate_rank": 1,
      "transform_id": "hardcode_no_ct",
      "source_ref_ids": [],
      "score": 1,
      "reason": "专家金标准种子。",
      "uncertainties": "不是真实模型结果。",
      "status": "proposed",
      "review_required": true,
      "structure_valid": true
    },
    "AE_UNIQUE_SUBJECT_IDENTIFIER#1": {
      "task_id": "AE_UNIQUE_SUBJECT_IDENTIFIER",
      "candidate_rank": 1,
      "transform_id": "derive_usubjid",
      "source_ref_ids": [
        "ae_merged__STUDY",
        "ae_merged__PATNUM"
      ],
      "score": 1,
      "reason": "专家金标准种子。",
      "uncertainties": "不是真实模型结果。",
      "status": "proposed",
      "review_required": true,
      "structure_valid": true
    },
    "AE_REPORTED_TERM#1": {
      "task_id": "AE_REPORTED_TERM",
      "candidate_rank": 1,
      "transform_id": "assign_no_ct",
      "source_ref_ids": [
        "ae_merged__AETERM"
      ],
      "score": 1,
      "reason": "专家金标准种子。",
      "uncertainties": "不是真实模型结果。",
      "status": "proposed",
      "review_required": true,
      "structure_valid": true
    },
    "AE_CODED_TERM#1": {
      "task_id": "AE_CODED_TERM",
      "candidate_rank": 1,
      "transform_id": "assign_no_ct",
      "source_ref_ids": [
        "ae_merged__AEDECOD"
      ],
      "score": 1,
      "reason": "专家金标准种子。",
      "uncertainties": "不是真实模型结果。",
      "status": "proposed",
      "review_required": true,
      "structure_valid": true
    },
    "AE_BODY_SYSTEM#1": {
      "task_id": "AE_BODY_SYSTEM",
      "candidate_rank": 1,
      "transform_id": "normalize_case",
      "source_ref_ids": [
        "ae_merged__AEBODSYS"
      ],
      "score": 1,
      "reason": "专家金标准种子。",
      "uncertainties": "不是真实模型结果。",
      "status": "proposed",
      "review_required": true,
      "structure_valid": true
    },
    "AE_SEVERITY#1": {
      "task_id": "AE_SEVERITY",
      "candidate_rank": 1,
      "transform_id": "assign_ct",
      "source_ref_ids": [
        "ae_merged__AESEV"
      ],
      "score": 1,
      "reason": "专家金标准种子。",
      "uncertainties": "不是真实模型结果。",
      "status": "proposed",
      "review_required": true,
      "structure_valid": true
    },
    "AE_SERIOUS#1": {
      "task_id": "AE_SERIOUS",
      "candidate_rank": 1,
      "transform_id": "assign_ct",
      "source_ref_ids": [
        "ae_merged__AESER"
      ],
      "score": 1,
      "reason": "专家金标准种子。",
      "uncertainties": "不是真实模型结果。",
      "status": "proposed",
      "review_required": true,
      "structure_valid": true
    },
    "AE_HOSPITALIZATION#1": {
      "task_id": "AE_HOSPITALIZATION",
      "candidate_rank": 1,
      "transform_id": "assign_ct",
      "source_ref_ids": [
        "ae_merged__AESHOSP"
      ],
      "score": 1,
      "reason": "专家金标准种子。",
      "uncertainties": "不是真实模型结果。",
      "status": "proposed",
      "review_required": true,
      "structure_valid": true
    },
    "AE_RELATIONSHIP#1": {
      "task_id": "AE_RELATIONSHIP",
      "candidate_rank": 1,
      "transform_id": "assign_ct",
      "source_ref_ids": [
        "ae_merged__AEREL"
      ],
      "score": 1,
      "reason": "专家金标准种子。",
      "uncertainties": "不是真实模型结果。",
      "status": "proposed",
      "review_required": true,
      "structure_valid": true
    },
    "AE_OUTCOME#1": {
      "task_id": "AE_OUTCOME",
      "candidate_rank": 1,
      "transform_id": "assign_ct",
      "source_ref_ids": [
        "ae_merged__AEOUTCOME"
      ],
      "score": 1,
      "reason": "专家金标准种子。",
      "uncertainties": "不是真实模型结果。",
      "status": "proposed",
      "review_required": true,
      "structure_valid": true
    },
    "AE_START_DATETIME#1": {
      "task_id": "AE_START_DATETIME",
      "candidate_rank": 1,
      "transform_id": "to_iso8601_partial_datetime",
      "source_ref_ids": [
        "ae_merged__AESTDAT",
        "ae_merged__AESTTIM"
      ],
      "score": 1,
      "reason": "专家金标准种子。",
      "uncertainties": "不是真实模型结果。",
      "status": "proposed",
      "review_required": true,
      "structure_valid": true
    },
    "AE_START_STUDY_DAY#1": {
      "task_id": "AE_START_STUDY_DAY",
      "candidate_rank": 1,
      "transform_id": "derive_study_day",
      "source_ref_ids": [],
      "score": 1,
      "reason": "专家金标准种子。",
      "uncertainties": "不是真实模型结果。",
      "status": "proposed",
      "review_required": true,
      "structure_valid": true
    },
    "AE_END_DATETIME#1": {
      "task_id": "AE_END_DATETIME",
      "candidate_rank": 1,
      "transform_id": "to_iso8601_partial_datetime",
      "source_ref_ids": [
        "ae_merged__AEENDDAT",
        "ae_merged__AEENDTIM"
      ],
      "score": 1,
      "reason": "专家金标准种子。",
      "uncertainties": "不是真实模型结果。",
      "status": "proposed",
      "review_required": true,
      "structure_valid": true
    },
    "AE_ONGOING_STATUS#1": {
      "task_id": "AE_ONGOING_STATUS",
      "candidate_rank": 1,
      "transform_id": "derive_ongoing_flag",
      "source_ref_ids": [
        "ae_merged__AEENDDAT",
        "ae_merged__AEONGO"
      ],
      "score": 1,
      "reason": "专家金标准种子。",
      "uncertainties": "不是真实模型结果。",
      "status": "proposed",
      "review_required": true,
      "structure_valid": true
    },
    "AE_END_STUDY_DAY#1": {
      "task_id": "AE_END_STUDY_DAY",
      "candidate_rank": 1,
      "transform_id": "derive_study_day",
      "source_ref_ids": [],
      "score": 1,
      "reason": "专家金标准种子。",
      "uncertainties": "不是真实模型结果。",
      "status": "proposed",
      "review_required": true,
      "structure_valid": true
    },
    "AE_SEQUENCE#1": {
      "task_id": "AE_SEQUENCE",
      "candidate_rank": 1,
      "transform_id": "derive_sequence",
      "source_ref_ids": [],
      "score": 1,
      "reason": "专家金标准种子。",
      "uncertainties": "不是真实模型结果。",
      "status": "proposed",
      "review_required": true,
      "structure_valid": true
    },
    "VS_STUDY_IDENTIFIER#1": {
      "task_id": "VS_STUDY_IDENTIFIER",
      "candidate_rank": 1,
      "transform_id": "assign_no_ct",
      "source_ref_ids": [
        "vs_mixed__STUDY"
      ],
      "score": 1,
      "reason": "专家金标准种子。",
      "uncertainties": "不是真实模型结果。",
      "status": "proposed",
      "review_required": true,
      "structure_valid": true
    },
    "VS_DOMAIN_CONSTANT#1": {
      "task_id": "VS_DOMAIN_CONSTANT",
      "candidate_rank": 1,
      "transform_id": "hardcode_no_ct",
      "source_ref_ids": [],
      "score": 1,
      "reason": "专家金标准种子。",
      "uncertainties": "不是真实模型结果。",
      "status": "proposed",
      "review_required": true,
      "structure_valid": true
    },
    "VS_UNIQUE_SUBJECT_IDENTIFIER#1": {
      "task_id": "VS_UNIQUE_SUBJECT_IDENTIFIER",
      "candidate_rank": 1,
      "transform_id": "derive_usubjid",
      "source_ref_ids": [
        "vs_mixed__STUDY",
        "vs_mixed__PATNUM"
      ],
      "score": 1,
      "reason": "专家金标准种子。",
      "uncertainties": "不是真实模型结果。",
      "status": "proposed",
      "review_required": true,
      "structure_valid": true
    },
    "VS_VISIT#1": {
      "task_id": "VS_VISIT",
      "candidate_rank": 1,
      "transform_id": "assign_no_ct",
      "source_ref_ids": [
        "vs_mixed__INSTANCE"
      ],
      "score": 1,
      "reason": "专家金标准种子。",
      "uncertainties": "不是真实模型结果。",
      "status": "proposed",
      "review_required": true,
      "structure_valid": true
    },
    "VS_VISIT_NUMBER#1": {
      "task_id": "VS_VISIT_NUMBER",
      "candidate_rank": 1,
      "transform_id": "derive_visitnum",
      "source_ref_ids": [
        "vs_mixed__INSTANCE"
      ],
      "score": 1,
      "reason": "专家金标准种子。",
      "uncertainties": "不是真实模型结果。",
      "status": "proposed",
      "review_required": true,
      "structure_valid": true
    },
    "VS_DATETIME#1": {
      "task_id": "VS_DATETIME",
      "candidate_rank": 1,
      "transform_id": "to_iso8601_datetime",
      "source_ref_ids": [
        "vs_mixed__VTLD",
        "vs_mixed__VSTIM"
      ],
      "score": 1,
      "reason": "专家金标准种子。",
      "uncertainties": "不是真实模型结果。",
      "status": "proposed",
      "review_required": true,
      "structure_valid": true
    },
    "VS_POSITION#1": {
      "task_id": "VS_POSITION",
      "candidate_rank": 1,
      "transform_id": "assign_ct",
      "source_ref_ids": [
        "vs_mixed__SUBPOS"
      ],
      "score": 1,
      "reason": "专家金标准种子。",
      "uncertainties": "不是真实模型结果。",
      "status": "proposed",
      "review_required": true,
      "structure_valid": true
    },
    "VS_HEIGHT_RECORD#1": {
      "task_id": "VS_HEIGHT_RECORD",
      "candidate_rank": 1,
      "transform_id": "transpose_findings",
      "source_ref_ids": [
        "vs_mixed__HEIGHT",
        "vs_mixed__HEIGHTU"
      ],
      "score": 1,
      "reason": "专家金标准种子。",
      "uncertainties": "不是真实模型结果。",
      "status": "proposed",
      "review_required": true,
      "structure_valid": true
    },
    "VS_HEIGHT_STANDARDIZATION#1": {
      "task_id": "VS_HEIGHT_STANDARDIZATION",
      "candidate_rank": 1,
      "transform_id": "standardize_unit",
      "source_ref_ids": [
        "vs_mixed__HEIGHT",
        "vs_mixed__HEIGHTU"
      ],
      "score": 1,
      "reason": "专家金标准种子。",
      "uncertainties": "不是真实模型结果。",
      "status": "proposed",
      "review_required": true,
      "structure_valid": true
    },
    "VS_WEIGHT_RECORD#1": {
      "task_id": "VS_WEIGHT_RECORD",
      "candidate_rank": 1,
      "transform_id": "transpose_findings",
      "source_ref_ids": [
        "vs_mixed__WEIGHT",
        "vs_mixed__WEIGHTU"
      ],
      "score": 1,
      "reason": "专家金标准种子。",
      "uncertainties": "不是真实模型结果。",
      "status": "proposed",
      "review_required": true,
      "structure_valid": true
    },
    "VS_WEIGHT_STANDARDIZATION#1": {
      "task_id": "VS_WEIGHT_STANDARDIZATION",
      "candidate_rank": 1,
      "transform_id": "standardize_unit",
      "source_ref_ids": [
        "vs_mixed__WEIGHT",
        "vs_mixed__WEIGHTU"
      ],
      "score": 1,
      "reason": "专家金标准种子。",
      "uncertainties": "不是真实模型结果。",
      "status": "proposed",
      "review_required": true,
      "structure_valid": true
    },
    "VS_TEMP_RECORD#1": {
      "task_id": "VS_TEMP_RECORD",
      "candidate_rank": 1,
      "transform_id": "transpose_findings",
      "source_ref_ids": [
        "vs_mixed__TEMP",
        "vs_mixed__TEMPU"
      ],
      "score": 1,
      "reason": "专家金标准种子。",
      "uncertainties": "不是真实模型结果。",
      "status": "proposed",
      "review_required": true,
      "structure_valid": true
    },
    "VS_TEMP_STANDARDIZATION#1": {
      "task_id": "VS_TEMP_STANDARDIZATION",
      "candidate_rank": 1,
      "transform_id": "standardize_unit",
      "source_ref_ids": [
        "vs_mixed__TEMP",
        "vs_mixed__TEMPU"
      ],
      "score": 1,
      "reason": "专家金标准种子。",
      "uncertainties": "不是真实模型结果。",
      "status": "proposed",
      "review_required": true,
      "structure_valid": true
    },
    "VS_SYSBP_RECORD#1": {
      "task_id": "VS_SYSBP_RECORD",
      "candidate_rank": 1,
      "transform_id": "transpose_findings",
      "source_ref_ids": [
        "vs_mixed__SYS_BP",
        "vs_mixed__SYS_BPU"
      ],
      "score": 1,
      "reason": "专家金标准种子。",
      "uncertainties": "不是真实模型结果。",
      "status": "proposed",
      "review_required": true,
      "structure_valid": true
    },
    "VS_SYSBP_STANDARDIZATION#1": {
      "task_id": "VS_SYSBP_STANDARDIZATION",
      "candidate_rank": 1,
      "transform_id": "standardize_unit",
      "source_ref_ids": [
        "vs_mixed__SYS_BP",
        "vs_mixed__SYS_BPU"
      ],
      "score": 1,
      "reason": "专家金标准种子。",
      "uncertainties": "不是真实模型结果。",
      "status": "proposed",
      "review_required": true,
      "structure_valid": true
    },
    "VS_DIABP_RECORD#1": {
      "task_id": "VS_DIABP_RECORD",
      "candidate_rank": 1,
      "transform_id": "transpose_findings",
      "source_ref_ids": [
        "vs_mixed__DIA_BP",
        "vs_mixed__DIA_BPU"
      ],
      "score": 1,
      "reason": "专家金标准种子。",
      "uncertainties": "不是真实模型结果。",
      "status": "proposed",
      "review_required": true,
      "structure_valid": true
    },
    "VS_DIABP_STANDARDIZATION#1": {
      "task_id": "VS_DIABP_STANDARDIZATION",
      "candidate_rank": 1,
      "transform_id": "standardize_unit",
      "source_ref_ids": [
        "vs_mixed__DIA_BP",
        "vs_mixed__DIA_BPU"
      ],
      "score": 1,
      "reason": "专家金标准种子。",
      "uncertainties": "不是真实模型结果。",
      "status": "proposed",
      "review_required": true,
      "structure_valid": true
    },
    "VS_PULSE_RECORD#1": {
      "task_id": "VS_PULSE_RECORD",
      "candidate_rank": 1,
      "transform_id": "transpose_findings",
      "source_ref_ids": [
        "vs_mixed__PULSE",
        "vs_mixed__PULSEU"
      ],
      "score": 1,
      "reason": "专家金标准种子。",
      "uncertainties": "不是真实模型结果。",
      "status": "proposed",
      "review_required": true,
      "structure_valid": true
    },
    "VS_PULSE_STANDARDIZATION#1": {
      "task_id": "VS_PULSE_STANDARDIZATION",
      "candidate_rank": 1,
      "transform_id": "standardize_unit",
      "source_ref_ids": [
        "vs_mixed__PULSE",
        "vs_mixed__PULSEU"
      ],
      "score": 1,
      "reason": "专家金标准种子。",
      "uncertainties": "不是真实模型结果。",
      "status": "proposed",
      "review_required": true,
      "structure_valid": true
    },
    "VS_SEQUENCE#1": {
      "task_id": "VS_SEQUENCE",
      "candidate_rank": 1,
      "transform_id": "derive_sequence",
      "source_ref_ids": [],
      "score": 1,
      "reason": "专家金标准种子。",
      "uncertainties": "不是真实模型结果。",
      "status": "proposed",
      "review_required": true,
      "structure_valid": true
    },
    "VS_STUDY_DAY#1": {
      "task_id": "VS_STUDY_DAY",
      "candidate_rank": 1,
      "transform_id": "derive_study_day",
      "source_ref_ids": [],
      "score": 1,
      "reason": "专家金标准种子。",
      "uncertainties": "不是真实模型结果。",
      "status": "proposed",
      "review_required": true,
      "structure_valid": true
    },
    "VS_BASELINE_FLAG#1": {
      "task_id": "VS_BASELINE_FLAG",
      "candidate_rank": 1,
      "transform_id": "derive_baseline_flag",
      "source_ref_ids": [],
      "score": 1,
      "reason": "专家金标准种子。",
      "uncertainties": "不是真实模型结果。",
      "status": "proposed",
      "review_required": true,
      "structure_valid": true
    }
  },
  "failures": [],
  "stage": "function_selection",
  "provider": "seed",
  "attempts": {
    "dm_atomic_v04": {
      "provider": "seed",
      "attempt_count": 0
    },
    "ae_atomic_v04": {
      "provider": "seed",
      "attempt_count": 0
    },
    "vs_atomic_v04": {
      "provider": "seed",
      "attempt_count": 0
    }
  }
}
