{
  "valid": {
    "AE_BODY_SYSTEM#1": {
      "task_id": "AE_BODY_SYSTEM",
      "candidate_rank": 1,
      "status": "proposed",
      "uncertainties": "不是真实模型结果。",
      "parameters": {
        "case": "upper"
      },
      "parameter_sources": {
        "case": {
          "source": "reviewer",
          "reference": "gold_seed"
        }
      }
    }
  },
  "failures": [],
  "missing_candidate_keys": [],
  "stage": "parameter_completion",
  "provider": "seed",
  "resolutions": {
    "valid": {
      "DM_STUDY_IDENTIFIER#1": {
        "task_id": "DM_STUDY_IDENTIFIER",
        "candidate_rank": 1,
        "transform_id": "assign_no_ct",
        "injected_parameters": {},
        "parameter_sources": {},
        "unresolved_parameters": [],
        "parameter_options": [],
        "unavailable_parameters": [],
        "fully_resolved": true,
        "status": "ready"
      },
      "DM_DOMAIN_CONSTANT#1": {
        "task_id": "DM_DOMAIN_CONSTANT",
        "candidate_rank": 1,
        "transform_id": "hardcode_no_ct",
        "injected_parameters": {
          "value": "DM"
        },
        "parameter_sources": {
          "value": {
            "source": "policy",
            "reference": "resolver:target_constant"
          }
        },
        "unresolved_parameters": [],
        "parameter_options": {},
        "unavailable_parameters": [],
        "fully_resolved": true,
        "status": "ready"
      },
      "DM_UNIQUE_SUBJECT_IDENTIFIER#1": {
        "task_id": "DM_UNIQUE_SUBJECT_IDENTIFIER",
        "candidate_rank": 1,
        "transform_id": "derive_usubjid",
        "injected_parameters": {
          "separator": "-"
        },
        "parameter_sources": {
          "separator": {
            "source": "policy",
            "reference": "resolver:identifier_policy"
          }
        },
        "unresolved_parameters": [],
        "parameter_options": {},
        "unavailable_parameters": [],
        "fully_resolved": true,
        "status": "ready"
      },
      "DM_SUBJECT_IDENTIFIER#1": {
        "task_id": "DM_SUBJECT_IDENTIFIER",
        "candidate_rank": 1,
        "transform_id": "assign_no_ct",
        "injected_parameters": {},
        "parameter_sources": {},
        "unresolved_parameters": [],
        "parameter_options": [],
        "unavailable_parameters": [],
        "fully_resolved": true,
        "status": "ready"
      },
      "DM_SITE_IDENTIFIER#1": {
        "task_id": "DM_SITE_IDENTIFIER",
        "candidate_rank": 1,
        "transform_id": "extract_delimited_part",
        "injected_parameters": {
          "separator": "-",
          "position": 1
        },
        "parameter_sources": {
          "separator": {
            "source": "policy",
            "reference": "resolver:site_identifier_policy"
          },
          "position": {
            "source": "policy",
            "reference": "resolver:site_identifier_policy"
          }
        },
        "unresolved_parameters": [],
        "parameter_options": {},
        "unavailable_parameters": [],
        "fully_resolved": true,
        "status": "ready"
      },
      "DM_REFERENCE_START#1": {
        "task_id": "DM_REFERENCE_START",
        "candidate_rank": 1,
        "transform_id": "derive_reference_datetime",
        "injected_parameters": {
          "selection": "min",
          "subject_keys": [
            "PATNUM"
          ],
          "sources": [
            {
              "dataset": "ex_a_raw",
              "date_variable": "EXSTDAT",
              "time_variable": "EXSTTIM",
              "date_formats": [
                "m/d/y"
              ],
              "time_formats": [
                "H:M"
              ]
            },
            {
              "dataset": "ex_b_raw",
              "date_variable": "DOSE_DATE",
              "time_variable": "DOSE_TIME",
              "date_formats": [
                "dd-mmm-yyyy"
              ],
              "time_formats": [
                "H:M"
              ]
            }
          ]
        },
        "parameter_sources": {
          "selection": {
            "source": "policy",
            "reference": "resolver:reference_datetime_policy"
          },
          "subject_keys": {
            "source": "policy",
            "reference": "resolver:reference_datetime_policy"
          },
          "sources": {
            "source": "policy",
            "reference": "resolver:reference_datetime_policy"
          }
        },
        "unresolved_parameters": [],
        "parameter_options": {},
        "unavailable_parameters": [],
        "fully_resolved": true,
        "status": "ready"
      },
      "DM_CONSENT#1": {
        "task_id": "DM_CONSENT",
        "candidate_rank": 1,
        "transform_id": "to_iso8601_date",
        "injected_parameters": {
          "formats": [
            "m/d/y"
          ]
        },
        "parameter_sources": {
          "formats": {
            "source": "policy",
            "reference": "resolver:approved_formats"
          }
        },
        "unresolved_parameters": [],
        "parameter_options": {},
        "unavailable_parameters": [],
        "fully_resolved": true,
        "status": "ready"
      },
      "DM_AGE#1": {
        "task_id": "DM_AGE",
        "candidate_rank": 1,
        "transform_id": "assign_no_ct",
        "injected_parameters": {},
        "parameter_sources": {},
        "unresolved_parameters": [],
        "parameter_options": [],
        "unavailable_parameters": [],
        "fully_resolved": true,
        "status": "ready"
      },
      "DM_AGE_UNIT#1": {
        "task_id": "DM_AGE_UNIT",
        "candidate_rank": 1,
        "transform_id": "hardcode_ct",
        "injected_parameters": {
          "value": "YEARS",
          "codelist_id": "AGEU"
        },
        "parameter_sources": {
          "value": {
            "source": "policy",
            "reference": "resolver:target_constant"
          },
          "codelist_id": {
            "source": "resource",
            "reference": "resolver:target_codelist"
          }
        },
        "unresolved_parameters": [],
        "parameter_options": {},
        "unavailable_parameters": [],
        "fully_resolved": true,
        "status": "ready"
      },
      "DM_SEX#1": {
        "task_id": "DM_SEX",
        "candidate_rank": 1,
        "transform_id": "assign_ct",
        "injected_parameters": {
          "codelist_id": "SEX"
        },
        "parameter_sources": {
          "codelist_id": {
            "source": "resource",
            "reference": "resolver:target_codelist"
          }
        },
        "unresolved_parameters": [],
        "parameter_options": {},
        "unavailable_parameters": [],
        "fully_resolved": true,
        "status": "ready"
      },
      "DM_ETHNICITY#1": {
        "task_id": "DM_ETHNICITY",
        "candidate_rank": 1,
        "transform_id": "assign_ct",
        "injected_parameters": {
          "codelist_id": "ETHNIC"
        },
        "parameter_sources": {
          "codelist_id": {
            "source": "resource",
            "reference": "resolver:target_codelist"
          }
        },
        "unresolved_parameters": [],
        "parameter_options": {},
        "unavailable_parameters": [],
        "fully_resolved": true,
        "status": "ready"
      },
      "DM_RACE#1": {
        "task_id": "DM_RACE",
        "candidate_rank": 1,
        "transform_id": "assign_ct",
        "injected_parameters": {
          "codelist_id": "RACE"
        },
        "parameter_sources": {
          "codelist_id": {
            "source": "resource",
            "reference": "resolver:target_codelist"
          }
        },
        "unresolved_parameters": [],
        "parameter_options": {},
        "unavailable_parameters": [],
        "fully_resolved": true,
        "status": "ready"
      },
      "DM_COUNTRY#1": {
        "task_id": "DM_COUNTRY",
        "candidate_rank": 1,
        "transform_id": "assign_no_ct",
        "injected_parameters": {},
        "parameter_sources": {},
        "unresolved_parameters": [],
        "parameter_options": [],
        "unavailable_parameters": [],
        "fully_resolved": true,
        "status": "ready"
      },
      "DM_PLANNED_ARM_CODE#1": {
        "task_id": "DM_PLANNED_ARM_CODE",
        "candidate_rank": 1,
        "transform_id": "assign_no_ct",
        "injected_parameters": {},
        "parameter_sources": {},
        "unresolved_parameters": [],
        "parameter_options": [],
        "unavailable_parameters": [],
        "fully_resolved": true,
        "status": "ready"
      },
      "DM_PLANNED_ARM#1": {
        "task_id": "DM_PLANNED_ARM",
        "candidate_rank": 1,
        "transform_id": "assign_no_ct",
        "injected_parameters": {},
        "parameter_sources": {},
        "unresolved_parameters": [],
        "parameter_options": [],
        "unavailable_parameters": [],
        "fully_resolved": true,
        "status": "ready"
      },
      "DM_ACTUAL_ARM_CODE#1": {
        "task_id": "DM_ACTUAL_ARM_CODE",
        "candidate_rank": 1,
        "transform_id": "assign_no_ct",
        "injected_parameters": {},
        "parameter_sources": {},
        "unresolved_parameters": [],
        "parameter_options": [],
        "unavailable_parameters": [],
        "fully_resolved": true,
        "status": "ready"
      },
      "DM_ACTUAL_ARM#1": {
        "task_id": "DM_ACTUAL_ARM",
        "candidate_rank": 1,
        "transform_id": "assign_no_ct",
        "injected_parameters": {},
        "parameter_sources": {},
        "unresolved_parameters": [],
        "parameter_options": [],
        "unavailable_parameters": [],
        "fully_resolved": true,
        "status": "ready"
      },
      "AE_SOURCE_INTEGRATION#1": {
        "task_id": "AE_SOURCE_INTEGRATION",
        "candidate_rank": 1,
        "transform_id": "merge_sources",
        "injected_parameters": {
          "left_dataset": "ae_main",
          "right_dataset": "sae_detail",
          "output_dataset": "ae_merged",
          "by": {
            "STUDY": "STUDY",
            "PATNUM": "PATNUM",
            "AEID": "AEID"
          },
          "relationship": "one-to-one",
          "join_type": "left",
          "select": [
            "AESHOSP"
          ],
          "conflict_policy": "error"
        },
        "parameter_sources": {
          "left_dataset": {
            "source": "derived",
            "reference": "resolver:source_relationship"
          },
          "right_dataset": {
            "source": "derived",
            "reference": "resolver:source_relationship"
          },
          "output_dataset": {
            "source": "policy",
            "reference": "resolver:source_relationship"
          },
          "by": {
            "source": "policy",
            "reference": "resolver:source_relationship"
          },
          "relationship": {
            "source": "policy",
            "reference": "resolver:source_relationship"
          },
          "join_type": {
            "source": "registry",
            "reference": "resolver:source_relationship"
          },
          "select": {
            "source": "derived",
            "reference": "resolver:source_relationship"
          },
          "conflict_policy": {
            "source": "registry",
            "reference": "resolver:source_relationship"
          }
        },
        "unresolved_parameters": [],
        "parameter_options": {},
        "unavailable_parameters": [],
        "fully_resolved": true,
        "status": "ready"
      },
      "AE_STUDY_IDENTIFIER#1": {
        "task_id": "AE_STUDY_IDENTIFIER",
        "candidate_rank": 1,
        "transform_id": "assign_no_ct",
        "injected_parameters": {},
        "parameter_sources": {},
        "unresolved_parameters": [],
        "parameter_options": [],
        "unavailable_parameters": [],
        "fully_resolved": true,
        "status": "ready"
      },
      "AE_DOMAIN_CONSTANT#1": {
        "task_id": "AE_DOMAIN_CONSTANT",
        "candidate_rank": 1,
        "transform_id": "hardcode_no_ct",
        "injected_parameters": {
          "value": "AE"
        },
        "parameter_sources": {
          "value": {
            "source": "policy",
            "reference": "resolver:target_constant"
          }
        },
        "unresolved_parameters": [],
        "parameter_options": {},
        "unavailable_parameters": [],
        "fully_resolved": true,
        "status": "ready"
      },
      "AE_UNIQUE_SUBJECT_IDENTIFIER#1": {
        "task_id": "AE_UNIQUE_SUBJECT_IDENTIFIER",
        "candidate_rank": 1,
        "transform_id": "derive_usubjid",
        "injected_parameters": {
          "separator": "-"
        },
        "parameter_sources": {
          "separator": {
            "source": "policy",
            "reference": "resolver:identifier_policy"
          }
        },
        "unresolved_parameters": [],
        "parameter_options": {},
        "unavailable_parameters": [],
        "fully_resolved": true,
        "status": "ready"
      },
      "AE_REPORTED_TERM#1": {
        "task_id": "AE_REPORTED_TERM",
        "candidate_rank": 1,
        "transform_id": "assign_no_ct",
        "injected_parameters": {},
        "parameter_sources": {},
        "unresolved_parameters": [],
        "parameter_options": [],
        "unavailable_parameters": [],
        "fully_resolved": true,
        "status": "ready"
      },
      "AE_CODED_TERM#1": {
        "task_id": "AE_CODED_TERM",
        "candidate_rank": 1,
        "transform_id": "assign_no_ct",
        "injected_parameters": {},
        "parameter_sources": {},
        "unresolved_parameters": [],
        "parameter_options": [],
        "unavailable_parameters": [],
        "fully_resolved": true,
        "status": "ready"
      },
      "AE_BODY_SYSTEM#1": {
        "task_id": "AE_BODY_SYSTEM",
        "candidate_rank": 1,
        "transform_id": "normalize_case",
        "injected_parameters": {},
        "parameter_sources": {},
        "unresolved_parameters": "case",
        "parameter_options": {
          "case": [
            "upper",
            "lower"
          ]
        },
        "unavailable_parameters": [],
        "fully_resolved": false,
        "status": "ready"
      },
      "AE_SEVERITY#1": {
        "task_id": "AE_SEVERITY",
        "candidate_rank": 1,
        "transform_id": "assign_ct",
        "injected_parameters": {
          "codelist_id": "AESEV"
        },
        "parameter_sources": {
          "codelist_id": {
            "source": "resource",
            "reference": "resolver:target_codelist"
          }
        },
        "unresolved_parameters": [],
        "parameter_options": {},
        "unavailable_parameters": [],
        "fully_resolved": true,
        "status": "ready"
      },
      "AE_SERIOUS#1": {
        "task_id": "AE_SERIOUS",
        "candidate_rank": 1,
        "transform_id": "assign_ct",
        "injected_parameters": {
          "codelist_id": "NY"
        },
        "parameter_sources": {
          "codelist_id": {
            "source": "resource",
            "reference": "resolver:target_codelist"
          }
        },
        "unresolved_parameters": [],
        "parameter_options": {},
        "unavailable_parameters": [],
        "fully_resolved": true,
        "status": "ready"
      },
      "AE_HOSPITALIZATION#1": {
        "task_id": "AE_HOSPITALIZATION",
        "candidate_rank": 1,
        "transform_id": "assign_ct",
        "injected_parameters": {
          "codelist_id": "NY"
        },
        "parameter_sources": {
          "codelist_id": {
            "source": "resource",
            "reference": "resolver:target_codelist"
          }
        },
        "unresolved_parameters": [],
        "parameter_options": {},
        "unavailable_parameters": [],
        "fully_resolved": true,
        "status": "ready"
      },
      "AE_RELATIONSHIP#1": {
        "task_id": "AE_RELATIONSHIP",
        "candidate_rank": 1,
        "transform_id": "assign_ct",
        "injected_parameters": {
          "codelist_id": "AEREL"
        },
        "parameter_sources": {
          "codelist_id": {
            "source": "resource",
            "reference": "resolver:target_codelist"
          }
        },
        "unresolved_parameters": [],
        "parameter_options": {},
        "unavailable_parameters": [],
        "fully_resolved": true,
        "status": "ready"
      },
      "AE_OUTCOME#1": {
        "task_id": "AE_OUTCOME",
        "candidate_rank": 1,
        "transform_id": "assign_ct",
        "injected_parameters": {
          "codelist_id": "AEOUT"
        },
        "parameter_sources": {
          "codelist_id": {
            "source": "resource",
            "reference": "resolver:target_codelist"
          }
        },
        "unresolved_parameters": [],
        "parameter_options": {},
        "unavailable_parameters": [],
        "fully_resolved": true,
        "status": "ready"
      },
      "AE_START_DATETIME#1": {
        "task_id": "AE_START_DATETIME",
        "candidate_rank": 1,
        "transform_id": "to_iso8601_partial_datetime",
        "injected_parameters": {
          "formats": [
            "dd-mmm-yyyy",
            "H:M"
          ],
          "unknown_tokens": [
            "UNK",
            "UN"
          ]
        },
        "parameter_sources": {
          "formats": {
            "source": "policy",
            "reference": "resolver:approved_formats"
          },
          "unknown_tokens": {
            "source": "policy",
            "reference": "resolver:partial_date_tokens"
          }
        },
        "unresolved_parameters": [],
        "parameter_options": {},
        "unavailable_parameters": [],
        "fully_resolved": true,
        "status": "ready"
      },
      "AE_START_STUDY_DAY#1": {
        "task_id": "AE_START_STUDY_DAY",
        "candidate_rank": 1,
        "transform_id": "derive_study_day",
        "injected_parameters": {
          "target_date": "AESTDTC",
          "reference_date": "RFSTDTC"
        },
        "parameter_sources": {
          "target_date": {
            "source": "derived",
            "reference": "resolver:study_day_policy"
          },
          "reference_date": {
            "source": "policy",
            "reference": "resolver:study_day_policy"
          }
        },
        "unresolved_parameters": [],
        "parameter_options": {},
        "unavailable_parameters": [],
        "fully_resolved": true,
        "status": "ready"
      },
      "AE_END_DATETIME#1": {
        "task_id": "AE_END_DATETIME",
        "candidate_rank": 1,
        "transform_id": "to_iso8601_partial_datetime",
        "injected_parameters": {
          "formats": [
            "dd-mmm-yyyy",
            "H:M"
          ],
          "unknown_tokens": [
            "UNK",
            "UN"
          ]
        },
        "parameter_sources": {
          "formats": {
            "source": "policy",
            "reference": "resolver:approved_formats"
          },
          "unknown_tokens": {
            "source": "policy",
            "reference": "resolver:partial_date_tokens"
          }
        },
        "unresolved_parameters": [],
        "parameter_options": {},
        "unavailable_parameters": [],
        "fully_resolved": true,
        "status": "ready"
      },
      "AE_ONGOING_STATUS#1": {
        "task_id": "AE_ONGOING_STATUS",
        "candidate_rank": 1,
        "transform_id": "derive_ongoing_flag",
        "injected_parameters": {
          "ongoing_value": "ONGOING",
          "affirmative_values": ["Y", "Yes"]
        },
        "parameter_sources": {
          "ongoing_value": {
            "source": "policy",
            "reference": "resolver:ongoing_policy"
          },
          "affirmative_values": {
            "source": "policy",
            "reference": "resolver:ongoing_policy"
          }
        },
        "unresolved_parameters": [],
        "parameter_options": {},
        "unavailable_parameters": [],
        "fully_resolved": true,
        "status": "ready"
      },
      "AE_END_STUDY_DAY#1": {
        "task_id": "AE_END_STUDY_DAY",
        "candidate_rank": 1,
        "transform_id": "derive_study_day",
        "injected_parameters": {
          "target_date": "AEENDTC",
          "reference_date": "RFSTDTC"
        },
        "parameter_sources": {
          "target_date": {
            "source": "derived",
            "reference": "resolver:study_day_policy"
          },
          "reference_date": {
            "source": "policy",
            "reference": "resolver:study_day_policy"
          }
        },
        "unresolved_parameters": [],
        "parameter_options": {},
        "unavailable_parameters": [],
        "fully_resolved": true,
        "status": "ready"
      },
      "AE_SEQUENCE#1": {
        "task_id": "AE_SEQUENCE",
        "candidate_rank": 1,
        "transform_id": "derive_sequence",
        "injected_parameters": {
          "record_variables": [
            "STUDYID",
            "USUBJID",
            "AESTDTC",
            "AETERM",
            "AEDECOD",
            ".SOURCE_ROW"
          ],
          "start_at": 1
        },
        "parameter_sources": {
          "record_variables": {
            "source": "policy",
            "reference": "resolver:sequence_policy"
          },
          "start_at": {
            "source": "policy",
            "reference": "resolver:sequence_policy"
          }
        },
        "unresolved_parameters": [],
        "parameter_options": {},
        "unavailable_parameters": [],
        "fully_resolved": true,
        "status": "ready"
      },
      "VS_STUDY_IDENTIFIER#1": {
        "task_id": "VS_STUDY_IDENTIFIER",
        "candidate_rank": 1,
        "transform_id": "assign_no_ct",
        "injected_parameters": {},
        "parameter_sources": {},
        "unresolved_parameters": [],
        "parameter_options": [],
        "unavailable_parameters": [],
        "fully_resolved": true,
        "status": "ready"
      },
      "VS_DOMAIN_CONSTANT#1": {
        "task_id": "VS_DOMAIN_CONSTANT",
        "candidate_rank": 1,
        "transform_id": "hardcode_no_ct",
        "injected_parameters": {
          "value": "VS"
        },
        "parameter_sources": {
          "value": {
            "source": "policy",
            "reference": "resolver:target_constant"
          }
        },
        "unresolved_parameters": [],
        "parameter_options": {},
        "unavailable_parameters": [],
        "fully_resolved": true,
        "status": "ready"
      },
      "VS_UNIQUE_SUBJECT_IDENTIFIER#1": {
        "task_id": "VS_UNIQUE_SUBJECT_IDENTIFIER",
        "candidate_rank": 1,
        "transform_id": "derive_usubjid",
        "injected_parameters": {
          "separator": "-"
        },
        "parameter_sources": {
          "separator": {
            "source": "policy",
            "reference": "resolver:identifier_policy"
          }
        },
        "unresolved_parameters": [],
        "parameter_options": {},
        "unavailable_parameters": [],
        "fully_resolved": true,
        "status": "ready"
      },
      "VS_VISIT#1": {
        "task_id": "VS_VISIT",
        "candidate_rank": 1,
        "transform_id": "assign_no_ct",
        "injected_parameters": {},
        "parameter_sources": {},
        "unresolved_parameters": [],
        "parameter_options": [],
        "unavailable_parameters": [],
        "fully_resolved": true,
        "status": "ready"
      },
      "VS_VISIT_NUMBER#1": {
        "task_id": "VS_VISIT_NUMBER",
        "candidate_rank": 1,
        "transform_id": "derive_visitnum",
        "injected_parameters": {
          "visit_map_id": "trace_visits_v1"
        },
        "parameter_sources": {
          "visit_map_id": {
            "source": "resource",
            "reference": "resolver:visit_policy"
          }
        },
        "unresolved_parameters": [],
        "parameter_options": {},
        "unavailable_parameters": [],
        "fully_resolved": true,
        "status": "ready"
      },
      "VS_DATETIME#1": {
        "task_id": "VS_DATETIME",
        "candidate_rank": 1,
        "transform_id": "to_iso8601_datetime",
        "injected_parameters": {
          "formats": [
            "dd-mmm-yyyy",
            "H:M"
          ],
          "unknown_tokens": [
            "UNK",
            "UN"
          ]
        },
        "parameter_sources": {
          "formats": {
            "source": "policy",
            "reference": "resolver:approved_formats"
          },
          "unknown_tokens": {
            "source": "policy",
            "reference": "resolver:partial_date_tokens"
          }
        },
        "unresolved_parameters": [],
        "parameter_options": {},
        "unavailable_parameters": [],
        "fully_resolved": true,
        "status": "ready"
      },
      "VS_POSITION#1": {
        "task_id": "VS_POSITION",
        "candidate_rank": 1,
        "transform_id": "assign_ct",
        "injected_parameters": {
          "codelist_id": "VSPOS"
        },
        "parameter_sources": {
          "codelist_id": {
            "source": "resource",
            "reference": "resolver:target_codelist"
          }
        },
        "unresolved_parameters": [],
        "parameter_options": {},
        "unavailable_parameters": [],
        "fully_resolved": true,
        "status": "ready"
      },
      "VS_HEIGHT_RECORD#1": {
        "task_id": "VS_HEIGHT_RECORD",
        "candidate_rank": 1,
        "transform_id": "transpose_findings",
        "injected_parameters": {
          "test_code": "HEIGHT",
          "test_name": "Height",
          "original_unit": null,
          "unit_source": "HEIGHTU"
        },
        "parameter_sources": {
          "test_code": {
            "source": "policy",
            "reference": "resolver:findings_policy"
          },
          "test_name": {
            "source": "policy",
            "reference": "resolver:findings_policy"
          },
          "original_unit": {
            "source": "policy",
            "reference": "resolver:findings_policy"
          },
          "unit_source": {
            "source": "policy",
            "reference": "resolver:findings_policy"
          }
        },
        "unresolved_parameters": [],
        "parameter_options": {},
        "unavailable_parameters": [],
        "fully_resolved": true,
        "status": "ready"
      },
      "VS_HEIGHT_STANDARDIZATION#1": {
        "task_id": "VS_HEIGHT_STANDARDIZATION",
        "candidate_rank": 1,
        "transform_id": "standardize_unit",
        "injected_parameters": {
          "conversion_set_id": "vs_standard_v1",
          "target_unit": "cm"
        },
        "parameter_sources": {
          "conversion_set_id": {
            "source": "resource",
            "reference": "resolver:unit_policy"
          },
          "target_unit": {
            "source": "policy",
            "reference": "resolver:unit_policy"
          }
        },
        "unresolved_parameters": [],
        "parameter_options": {},
        "unavailable_parameters": [],
        "fully_resolved": true,
        "status": "ready"
      },
      "VS_WEIGHT_RECORD#1": {
        "task_id": "VS_WEIGHT_RECORD",
        "candidate_rank": 1,
        "transform_id": "transpose_findings",
        "injected_parameters": {
          "test_code": "WEIGHT",
          "test_name": "Weight",
          "original_unit": null,
          "unit_source": "WEIGHTU"
        },
        "parameter_sources": {
          "test_code": {
            "source": "policy",
            "reference": "resolver:findings_policy"
          },
          "test_name": {
            "source": "policy",
            "reference": "resolver:findings_policy"
          },
          "original_unit": {
            "source": "policy",
            "reference": "resolver:findings_policy"
          },
          "unit_source": {
            "source": "policy",
            "reference": "resolver:findings_policy"
          }
        },
        "unresolved_parameters": [],
        "parameter_options": {},
        "unavailable_parameters": [],
        "fully_resolved": true,
        "status": "ready"
      },
      "VS_WEIGHT_STANDARDIZATION#1": {
        "task_id": "VS_WEIGHT_STANDARDIZATION",
        "candidate_rank": 1,
        "transform_id": "standardize_unit",
        "injected_parameters": {
          "conversion_set_id": "vs_standard_v1",
          "target_unit": "kg"
        },
        "parameter_sources": {
          "conversion_set_id": {
            "source": "resource",
            "reference": "resolver:unit_policy"
          },
          "target_unit": {
            "source": "policy",
            "reference": "resolver:unit_policy"
          }
        },
        "unresolved_parameters": [],
        "parameter_options": {},
        "unavailable_parameters": [],
        "fully_resolved": true,
        "status": "ready"
      },
      "VS_TEMP_RECORD#1": {
        "task_id": "VS_TEMP_RECORD",
        "candidate_rank": 1,
        "transform_id": "transpose_findings",
        "injected_parameters": {
          "test_code": "TEMP",
          "test_name": "Temperature",
          "original_unit": null,
          "unit_source": "TEMPU"
        },
        "parameter_sources": {
          "test_code": {
            "source": "policy",
            "reference": "resolver:findings_policy"
          },
          "test_name": {
            "source": "policy",
            "reference": "resolver:findings_policy"
          },
          "original_unit": {
            "source": "policy",
            "reference": "resolver:findings_policy"
          },
          "unit_source": {
            "source": "policy",
            "reference": "resolver:findings_policy"
          }
        },
        "unresolved_parameters": [],
        "parameter_options": {},
        "unavailable_parameters": [],
        "fully_resolved": true,
        "status": "ready"
      },
      "VS_TEMP_STANDARDIZATION#1": {
        "task_id": "VS_TEMP_STANDARDIZATION",
        "candidate_rank": 1,
        "transform_id": "standardize_unit",
        "injected_parameters": {
          "conversion_set_id": "vs_standard_v1",
          "target_unit": "C"
        },
        "parameter_sources": {
          "conversion_set_id": {
            "source": "resource",
            "reference": "resolver:unit_policy"
          },
          "target_unit": {
            "source": "policy",
            "reference": "resolver:unit_policy"
          }
        },
        "unresolved_parameters": [],
        "parameter_options": {},
        "unavailable_parameters": [],
        "fully_resolved": true,
        "status": "ready"
      },
      "VS_SYSBP_RECORD#1": {
        "task_id": "VS_SYSBP_RECORD",
        "candidate_rank": 1,
        "transform_id": "transpose_findings",
        "injected_parameters": {
          "test_code": "SYSBP",
          "test_name": "Systolic Blood Pressure",
          "original_unit": null,
          "unit_source": "SYS_BPU"
        },
        "parameter_sources": {
          "test_code": {
            "source": "policy",
            "reference": "resolver:findings_policy"
          },
          "test_name": {
            "source": "policy",
            "reference": "resolver:findings_policy"
          },
          "original_unit": {
            "source": "policy",
            "reference": "resolver:findings_policy"
          },
          "unit_source": {
            "source": "policy",
            "reference": "resolver:findings_policy"
          }
        },
        "unresolved_parameters": [],
        "parameter_options": {},
        "unavailable_parameters": [],
        "fully_resolved": true,
        "status": "ready"
      },
      "VS_SYSBP_STANDARDIZATION#1": {
        "task_id": "VS_SYSBP_STANDARDIZATION",
        "candidate_rank": 1,
        "transform_id": "standardize_unit",
        "injected_parameters": {
          "conversion_set_id": "vs_standard_v1",
          "target_unit": "mmHg"
        },
        "parameter_sources": {
          "conversion_set_id": {
            "source": "resource",
            "reference": "resolver:unit_policy"
          },
          "target_unit": {
            "source": "policy",
            "reference": "resolver:unit_policy"
          }
        },
        "unresolved_parameters": [],
        "parameter_options": {},
        "unavailable_parameters": [],
        "fully_resolved": true,
        "status": "ready"
      },
      "VS_DIABP_RECORD#1": {
        "task_id": "VS_DIABP_RECORD",
        "candidate_rank": 1,
        "transform_id": "transpose_findings",
        "injected_parameters": {
          "test_code": "DIABP",
          "test_name": "Diastolic Blood Pressure",
          "original_unit": null,
          "unit_source": "DIA_BPU"
        },
        "parameter_sources": {
          "test_code": {
            "source": "policy",
            "reference": "resolver:findings_policy"
          },
          "test_name": {
            "source": "policy",
            "reference": "resolver:findings_policy"
          },
          "original_unit": {
            "source": "policy",
            "reference": "resolver:findings_policy"
          },
          "unit_source": {
            "source": "policy",
            "reference": "resolver:findings_policy"
          }
        },
        "unresolved_parameters": [],
        "parameter_options": {},
        "unavailable_parameters": [],
        "fully_resolved": true,
        "status": "ready"
      },
      "VS_DIABP_STANDARDIZATION#1": {
        "task_id": "VS_DIABP_STANDARDIZATION",
        "candidate_rank": 1,
        "transform_id": "standardize_unit",
        "injected_parameters": {
          "conversion_set_id": "vs_standard_v1",
          "target_unit": "mmHg"
        },
        "parameter_sources": {
          "conversion_set_id": {
            "source": "resource",
            "reference": "resolver:unit_policy"
          },
          "target_unit": {
            "source": "policy",
            "reference": "resolver:unit_policy"
          }
        },
        "unresolved_parameters": [],
        "parameter_options": {},
        "unavailable_parameters": [],
        "fully_resolved": true,
        "status": "ready"
      },
      "VS_PULSE_RECORD#1": {
        "task_id": "VS_PULSE_RECORD",
        "candidate_rank": 1,
        "transform_id": "transpose_findings",
        "injected_parameters": {
          "test_code": "PULSE",
          "test_name": "Pulse Rate",
          "original_unit": null,
          "unit_source": "PULSEU"
        },
        "parameter_sources": {
          "test_code": {
            "source": "policy",
            "reference": "resolver:findings_policy"
          },
          "test_name": {
            "source": "policy",
            "reference": "resolver:findings_policy"
          },
          "original_unit": {
            "source": "policy",
            "reference": "resolver:findings_policy"
          },
          "unit_source": {
            "source": "policy",
            "reference": "resolver:findings_policy"
          }
        },
        "unresolved_parameters": [],
        "parameter_options": {},
        "unavailable_parameters": [],
        "fully_resolved": true,
        "status": "ready"
      },
      "VS_PULSE_STANDARDIZATION#1": {
        "task_id": "VS_PULSE_STANDARDIZATION",
        "candidate_rank": 1,
        "transform_id": "standardize_unit",
        "injected_parameters": {
          "conversion_set_id": "vs_standard_v1",
          "target_unit": "beats/min"
        },
        "parameter_sources": {
          "conversion_set_id": {
            "source": "resource",
            "reference": "resolver:unit_policy"
          },
          "target_unit": {
            "source": "policy",
            "reference": "resolver:unit_policy"
          }
        },
        "unresolved_parameters": [],
        "parameter_options": {},
        "unavailable_parameters": [],
        "fully_resolved": true,
        "status": "ready"
      },
      "VS_SEQUENCE#1": {
        "task_id": "VS_SEQUENCE",
        "candidate_rank": 1,
        "transform_id": "derive_sequence",
        "injected_parameters": {
          "record_variables": [
            "STUDYID",
            "USUBJID",
            "VSDTC",
            "VSTESTCD",
            "VSPOS",
            "VISITNUM",
            ".SOURCE_ROW"
          ],
          "start_at": 1
        },
        "parameter_sources": {
          "record_variables": {
            "source": "policy",
            "reference": "resolver:sequence_policy"
          },
          "start_at": {
            "source": "policy",
            "reference": "resolver:sequence_policy"
          }
        },
        "unresolved_parameters": [],
        "parameter_options": {},
        "unavailable_parameters": [],
        "fully_resolved": true,
        "status": "ready"
      },
      "VS_STUDY_DAY#1": {
        "task_id": "VS_STUDY_DAY",
        "candidate_rank": 1,
        "transform_id": "derive_study_day",
        "injected_parameters": {
          "target_date": "VSDTC",
          "reference_date": "RFSTDTC"
        },
        "parameter_sources": {
          "target_date": {
            "source": "derived",
            "reference": "resolver:study_day_policy"
          },
          "reference_date": {
            "source": "policy",
            "reference": "resolver:study_day_policy"
          }
        },
        "unresolved_parameters": [],
        "parameter_options": {},
        "unavailable_parameters": [],
        "fully_resolved": true,
        "status": "ready"
      },
      "VS_BASELINE_FLAG#1": {
        "task_id": "VS_BASELINE_FLAG",
        "candidate_rank": 1,
        "transform_id": "derive_baseline_flag",
        "injected_parameters": {
          "reference_date": "RFSTDTC",
          "baseline_visits": [
            "Screening 1"
          ],
          "baseline_timepoints": []
        },
        "parameter_sources": {
          "reference_date": {
            "source": "policy",
            "reference": "resolver:baseline_policy"
          },
          "baseline_visits": {
            "source": "policy",
            "reference": "resolver:baseline_policy"
          },
          "baseline_timepoints": {
            "source": "policy",
            "reference": "resolver:baseline_policy"
          }
        },
        "unresolved_parameters": [],
        "parameter_options": {},
        "unavailable_parameters": [],
        "fully_resolved": true,
        "status": "ready"
      }
    },
    "failures": [],
    "stage": "known_parameter_resolution"
  }
}
