{
  "valid": {
    "DM_STUDY_IDENTIFIER": {
      "task_id": "DM_STUDY_IDENTIFIER",
      "target_domain": "DM",
      "output_kind": "variables",
      "target_variables": [
        "STUDYID"
      ],
      "score": 1,
      "evidence": "专家金标准种子。",
      "uncertainties": "不是真实模型结果。",
      "status": "proposed",
      "structure_valid": true
    },
    "DM_DOMAIN_CONSTANT": {
      "task_id": "DM_DOMAIN_CONSTANT",
      "target_domain": "DM",
      "output_kind": "variables",
      "target_variables": [
        "DOMAIN"
      ],
      "score": 1,
      "evidence": "专家金标准种子。",
      "uncertainties": "不是真实模型结果。",
      "status": "proposed",
      "structure_valid": true
    },
    "DM_UNIQUE_SUBJECT_IDENTIFIER": {
      "task_id": "DM_UNIQUE_SUBJECT_IDENTIFIER",
      "target_domain": "DM",
      "output_kind": "variables",
      "target_variables": [
        "USUBJID"
      ],
      "score": 1,
      "evidence": "专家金标准种子。",
      "uncertainties": "不是真实模型结果。",
      "status": "proposed",
      "structure_valid": true
    },
    "DM_SUBJECT_IDENTIFIER": {
      "task_id": "DM_SUBJECT_IDENTIFIER",
      "target_domain": "DM",
      "output_kind": "variables",
      "target_variables": [
        "SUBJID"
      ],
      "score": 1,
      "evidence": "专家金标准种子。",
      "uncertainties": "不是真实模型结果。",
      "status": "proposed",
      "structure_valid": true
    },
    "DM_SITE_IDENTIFIER": {
      "task_id": "DM_SITE_IDENTIFIER",
      "target_domain": "DM",
      "output_kind": "variables",
      "target_variables": [
        "SITEID"
      ],
      "score": 1,
      "evidence": "专家金标准种子。",
      "uncertainties": "不是真实模型结果。",
      "status": "proposed",
      "structure_valid": true
    },
    "DM_REFERENCE_START": {
      "task_id": "DM_REFERENCE_START",
      "target_domain": "DM",
      "output_kind": "variables",
      "target_variables": [
        "RFSTDTC"
      ],
      "score": 1,
      "evidence": "专家金标准种子。",
      "uncertainties": "不是真实模型结果。",
      "status": "proposed",
      "structure_valid": true
    },
    "DM_CONSENT": {
      "task_id": "DM_CONSENT",
      "target_domain": "DM",
      "output_kind": "variables",
      "target_variables": [
        "RFICDTC"
      ],
      "score": 1,
      "evidence": "专家金标准种子。",
      "uncertainties": "不是真实模型结果。",
      "status": "proposed",
      "structure_valid": true
    },
    "DM_AGE": {
      "task_id": "DM_AGE",
      "target_domain": "DM",
      "output_kind": "variables",
      "target_variables": [
        "AGE"
      ],
      "score": 1,
      "evidence": "专家金标准种子。",
      "uncertainties": "不是真实模型结果。",
      "status": "proposed",
      "structure_valid": true
    },
    "DM_AGE_UNIT": {
      "task_id": "DM_AGE_UNIT",
      "target_domain": "DM",
      "output_kind": "variables",
      "target_variables": [
        "AGEU"
      ],
      "score": 1,
      "evidence": "专家金标准种子。",
      "uncertainties": "不是真实模型结果。",
      "status": "proposed",
      "structure_valid": true
    },
    "DM_SEX": {
      "task_id": "DM_SEX",
      "target_domain": "DM",
      "output_kind": "variables",
      "target_variables": [
        "SEX"
      ],
      "score": 1,
      "evidence": "专家金标准种子。",
      "uncertainties": "不是真实模型结果。",
      "status": "proposed",
      "structure_valid": true
    },
    "DM_ETHNICITY": {
      "task_id": "DM_ETHNICITY",
      "target_domain": "DM",
      "output_kind": "variables",
      "target_variables": [
        "ETHNIC"
      ],
      "score": 1,
      "evidence": "专家金标准种子。",
      "uncertainties": "不是真实模型结果。",
      "status": "proposed",
      "structure_valid": true
    },
    "DM_RACE": {
      "task_id": "DM_RACE",
      "target_domain": "DM",
      "output_kind": "variables",
      "target_variables": [
        "RACE"
      ],
      "score": 1,
      "evidence": "专家金标准种子。",
      "uncertainties": "不是真实模型结果。",
      "status": "proposed",
      "structure_valid": true
    },
    "DM_COUNTRY": {
      "task_id": "DM_COUNTRY",
      "target_domain": "DM",
      "output_kind": "variables",
      "target_variables": [
        "COUNTRY"
      ],
      "score": 1,
      "evidence": "专家金标准种子。",
      "uncertainties": "不是真实模型结果。",
      "status": "proposed",
      "structure_valid": true
    },
    "DM_PLANNED_ARM_CODE": {
      "task_id": "DM_PLANNED_ARM_CODE",
      "target_domain": "DM",
      "output_kind": "variables",
      "target_variables": [
        "ARMCD"
      ],
      "score": 1,
      "evidence": "专家金标准种子。",
      "uncertainties": "不是真实模型结果。",
      "status": "proposed",
      "structure_valid": true
    },
    "DM_PLANNED_ARM": {
      "task_id": "DM_PLANNED_ARM",
      "target_domain": "DM",
      "output_kind": "variables",
      "target_variables": [
        "ARM"
      ],
      "score": 1,
      "evidence": "专家金标准种子。",
      "uncertainties": "不是真实模型结果。",
      "status": "proposed",
      "structure_valid": true
    },
    "DM_ACTUAL_ARM_CODE": {
      "task_id": "DM_ACTUAL_ARM_CODE",
      "target_domain": "DM",
      "output_kind": "variables",
      "target_variables": [
        "ACTARMCD"
      ],
      "score": 1,
      "evidence": "专家金标准种子。",
      "uncertainties": "不是真实模型结果。",
      "status": "proposed",
      "structure_valid": true
    },
    "DM_ACTUAL_ARM": {
      "task_id": "DM_ACTUAL_ARM",
      "target_domain": "DM",
      "output_kind": "variables",
      "target_variables": [
        "ACTARM"
      ],
      "score": 1,
      "evidence": "专家金标准种子。",
      "uncertainties": "不是真实模型结果。",
      "status": "proposed",
      "structure_valid": true
    },
    "AE_SOURCE_INTEGRATION": {
      "task_id": "AE_SOURCE_INTEGRATION",
      "target_domain": "AE",
      "output_kind": "dataset",
      "target_variables": [],
      "score": 1,
      "evidence": "专家金标准种子。",
      "uncertainties": "不是真实模型结果。",
      "status": "proposed",
      "structure_valid": true
    },
    "AE_STUDY_IDENTIFIER": {
      "task_id": "AE_STUDY_IDENTIFIER",
      "target_domain": "AE",
      "output_kind": "variables",
      "target_variables": [
        "STUDYID"
      ],
      "score": 1,
      "evidence": "专家金标准种子。",
      "uncertainties": "不是真实模型结果。",
      "status": "proposed",
      "structure_valid": true
    },
    "AE_DOMAIN_CONSTANT": {
      "task_id": "AE_DOMAIN_CONSTANT",
      "target_domain": "AE",
      "output_kind": "variables",
      "target_variables": [
        "DOMAIN"
      ],
      "score": 1,
      "evidence": "专家金标准种子。",
      "uncertainties": "不是真实模型结果。",
      "status": "proposed",
      "structure_valid": true
    },
    "AE_UNIQUE_SUBJECT_IDENTIFIER": {
      "task_id": "AE_UNIQUE_SUBJECT_IDENTIFIER",
      "target_domain": "AE",
      "output_kind": "variables",
      "target_variables": [
        "USUBJID"
      ],
      "score": 1,
      "evidence": "专家金标准种子。",
      "uncertainties": "不是真实模型结果。",
      "status": "proposed",
      "structure_valid": true
    },
    "AE_REPORTED_TERM": {
      "task_id": "AE_REPORTED_TERM",
      "target_domain": "AE",
      "output_kind": "variables",
      "target_variables": [
        "AETERM"
      ],
      "score": 1,
      "evidence": "专家金标准种子。",
      "uncertainties": "不是真实模型结果。",
      "status": "proposed",
      "structure_valid": true
    },
    "AE_CODED_TERM": {
      "task_id": "AE_CODED_TERM",
      "target_domain": "AE",
      "output_kind": "variables",
      "target_variables": [
        "AEDECOD"
      ],
      "score": 1,
      "evidence": "专家金标准种子。",
      "uncertainties": "不是真实模型结果。",
      "status": "proposed",
      "structure_valid": true
    },
    "AE_BODY_SYSTEM": {
      "task_id": "AE_BODY_SYSTEM",
      "target_domain": "AE",
      "output_kind": "variables",
      "target_variables": [
        "AEBODSYS"
      ],
      "score": 1,
      "evidence": "专家金标准种子。",
      "uncertainties": "不是真实模型结果。",
      "status": "proposed",
      "structure_valid": true
    },
    "AE_SEVERITY": {
      "task_id": "AE_SEVERITY",
      "target_domain": "AE",
      "output_kind": "variables",
      "target_variables": [
        "AESEV"
      ],
      "score": 1,
      "evidence": "专家金标准种子。",
      "uncertainties": "不是真实模型结果。",
      "status": "proposed",
      "structure_valid": true
    },
    "AE_SERIOUS": {
      "task_id": "AE_SERIOUS",
      "target_domain": "AE",
      "output_kind": "variables",
      "target_variables": [
        "AESER"
      ],
      "score": 1,
      "evidence": "专家金标准种子。",
      "uncertainties": "不是真实模型结果。",
      "status": "proposed",
      "structure_valid": true
    },
    "AE_HOSPITALIZATION": {
      "task_id": "AE_HOSPITALIZATION",
      "target_domain": "AE",
      "output_kind": "variables",
      "target_variables": [
        "AESHOSP"
      ],
      "score": 1,
      "evidence": "专家金标准种子。",
      "uncertainties": "不是真实模型结果。",
      "status": "proposed",
      "structure_valid": true
    },
    "AE_RELATIONSHIP": {
      "task_id": "AE_RELATIONSHIP",
      "target_domain": "AE",
      "output_kind": "variables",
      "target_variables": [
        "AEREL"
      ],
      "score": 1,
      "evidence": "专家金标准种子。",
      "uncertainties": "不是真实模型结果。",
      "status": "proposed",
      "structure_valid": true
    },
    "AE_OUTCOME": {
      "task_id": "AE_OUTCOME",
      "target_domain": "AE",
      "output_kind": "variables",
      "target_variables": [
        "AEOUT"
      ],
      "score": 1,
      "evidence": "专家金标准种子。",
      "uncertainties": "不是真实模型结果。",
      "status": "proposed",
      "structure_valid": true
    },
    "AE_START_DATETIME": {
      "task_id": "AE_START_DATETIME",
      "target_domain": "AE",
      "output_kind": "variables",
      "target_variables": [
        "AESTDTC"
      ],
      "score": 1,
      "evidence": "专家金标准种子。",
      "uncertainties": "不是真实模型结果。",
      "status": "proposed",
      "structure_valid": true
    },
    "AE_START_STUDY_DAY": {
      "task_id": "AE_START_STUDY_DAY",
      "target_domain": "AE",
      "output_kind": "variables",
      "target_variables": [
        "AESTDY"
      ],
      "score": 1,
      "evidence": "专家金标准种子。",
      "uncertainties": "不是真实模型结果。",
      "status": "proposed",
      "structure_valid": true
    },
    "AE_END_DATETIME": {
      "task_id": "AE_END_DATETIME",
      "target_domain": "AE",
      "output_kind": "variables",
      "target_variables": [
        "AEENDTC"
      ],
      "score": 1,
      "evidence": "专家金标准种子。",
      "uncertainties": "不是真实模型结果。",
      "status": "proposed",
      "structure_valid": true
    },
    "AE_ONGOING_STATUS": {
      "task_id": "AE_ONGOING_STATUS",
      "target_domain": "AE",
      "output_kind": "variables",
      "target_variables": [
        "AEENRF"
      ],
      "score": 1,
      "evidence": "专家金标准种子。",
      "uncertainties": "不是真实模型结果。",
      "status": "proposed",
      "structure_valid": true
    },
    "AE_END_STUDY_DAY": {
      "task_id": "AE_END_STUDY_DAY",
      "target_domain": "AE",
      "output_kind": "variables",
      "target_variables": [
        "AEENDY"
      ],
      "score": 1,
      "evidence": "专家金标准种子。",
      "uncertainties": "不是真实模型结果。",
      "status": "proposed",
      "structure_valid": true
    },
    "AE_SEQUENCE": {
      "task_id": "AE_SEQUENCE",
      "target_domain": "AE",
      "output_kind": "variables",
      "target_variables": [
        "AESEQ"
      ],
      "score": 1,
      "evidence": "专家金标准种子。",
      "uncertainties": "不是真实模型结果。",
      "status": "proposed",
      "structure_valid": true
    },
    "VS_STUDY_IDENTIFIER": {
      "task_id": "VS_STUDY_IDENTIFIER",
      "target_domain": "VS",
      "output_kind": "variables",
      "target_variables": [
        "STUDYID"
      ],
      "score": 1,
      "evidence": "专家金标准种子。",
      "uncertainties": "不是真实模型结果。",
      "status": "proposed",
      "structure_valid": true
    },
    "VS_DOMAIN_CONSTANT": {
      "task_id": "VS_DOMAIN_CONSTANT",
      "target_domain": "VS",
      "output_kind": "variables",
      "target_variables": [
        "DOMAIN"
      ],
      "score": 1,
      "evidence": "专家金标准种子。",
      "uncertainties": "不是真实模型结果。",
      "status": "proposed",
      "structure_valid": true
    },
    "VS_UNIQUE_SUBJECT_IDENTIFIER": {
      "task_id": "VS_UNIQUE_SUBJECT_IDENTIFIER",
      "target_domain": "VS",
      "output_kind": "variables",
      "target_variables": [
        "USUBJID"
      ],
      "score": 1,
      "evidence": "专家金标准种子。",
      "uncertainties": "不是真实模型结果。",
      "status": "proposed",
      "structure_valid": true
    },
    "VS_VISIT": {
      "task_id": "VS_VISIT",
      "target_domain": "VS",
      "output_kind": "variables",
      "target_variables": [
        "VISIT"
      ],
      "score": 1,
      "evidence": "专家金标准种子。",
      "uncertainties": "不是真实模型结果。",
      "status": "proposed",
      "structure_valid": true
    },
    "VS_VISIT_NUMBER": {
      "task_id": "VS_VISIT_NUMBER",
      "target_domain": "VS",
      "output_kind": "variables",
      "target_variables": [
        "VISITNUM"
      ],
      "score": 1,
      "evidence": "专家金标准种子。",
      "uncertainties": "不是真实模型结果。",
      "status": "proposed",
      "structure_valid": true
    },
    "VS_DATETIME": {
      "task_id": "VS_DATETIME",
      "target_domain": "VS",
      "output_kind": "variables",
      "target_variables": [
        "VSDTC"
      ],
      "score": 1,
      "evidence": "专家金标准种子。",
      "uncertainties": "不是真实模型结果。",
      "status": "proposed",
      "structure_valid": true
    },
    "VS_POSITION": {
      "task_id": "VS_POSITION",
      "target_domain": "VS",
      "output_kind": "variables",
      "target_variables": [
        "VSPOS"
      ],
      "score": 1,
      "evidence": "专家金标准种子。",
      "uncertainties": "不是真实模型结果。",
      "status": "proposed",
      "structure_valid": true
    },
    "VS_HEIGHT_RECORD": {
      "task_id": "VS_HEIGHT_RECORD",
      "target_domain": "VS",
      "output_kind": "variables",
      "target_variables": [
        "VSTESTCD",
        "VSTEST",
        "VSORRES",
        "VSORRESU"
      ],
      "score": 1,
      "evidence": "专家金标准种子。",
      "uncertainties": "不是真实模型结果。",
      "status": "proposed",
      "structure_valid": true
    },
    "VS_HEIGHT_STANDARDIZATION": {
      "task_id": "VS_HEIGHT_STANDARDIZATION",
      "target_domain": "VS",
      "output_kind": "variables",
      "target_variables": [
        "VSSTRESC",
        "VSSTRESN",
        "VSSTRESU"
      ],
      "score": 1,
      "evidence": "专家金标准种子。",
      "uncertainties": "不是真实模型结果。",
      "status": "proposed",
      "structure_valid": true
    },
    "VS_WEIGHT_RECORD": {
      "task_id": "VS_WEIGHT_RECORD",
      "target_domain": "VS",
      "output_kind": "variables",
      "target_variables": [
        "VSTESTCD",
        "VSTEST",
        "VSORRES",
        "VSORRESU"
      ],
      "score": 1,
      "evidence": "专家金标准种子。",
      "uncertainties": "不是真实模型结果。",
      "status": "proposed",
      "structure_valid": true
    },
    "VS_WEIGHT_STANDARDIZATION": {
      "task_id": "VS_WEIGHT_STANDARDIZATION",
      "target_domain": "VS",
      "output_kind": "variables",
      "target_variables": [
        "VSSTRESC",
        "VSSTRESN",
        "VSSTRESU"
      ],
      "score": 1,
      "evidence": "专家金标准种子。",
      "uncertainties": "不是真实模型结果。",
      "status": "proposed",
      "structure_valid": true
    },
    "VS_TEMP_RECORD": {
      "task_id": "VS_TEMP_RECORD",
      "target_domain": "VS",
      "output_kind": "variables",
      "target_variables": [
        "VSTESTCD",
        "VSTEST",
        "VSORRES",
        "VSORRESU"
      ],
      "score": 1,
      "evidence": "专家金标准种子。",
      "uncertainties": "不是真实模型结果。",
      "status": "proposed",
      "structure_valid": true
    },
    "VS_TEMP_STANDARDIZATION": {
      "task_id": "VS_TEMP_STANDARDIZATION",
      "target_domain": "VS",
      "output_kind": "variables",
      "target_variables": [
        "VSSTRESC",
        "VSSTRESN",
        "VSSTRESU"
      ],
      "score": 1,
      "evidence": "专家金标准种子。",
      "uncertainties": "不是真实模型结果。",
      "status": "proposed",
      "structure_valid": true
    },
    "VS_SYSBP_RECORD": {
      "task_id": "VS_SYSBP_RECORD",
      "target_domain": "VS",
      "output_kind": "variables",
      "target_variables": [
        "VSTESTCD",
        "VSTEST",
        "VSORRES",
        "VSORRESU"
      ],
      "score": 1,
      "evidence": "专家金标准种子。",
      "uncertainties": "不是真实模型结果。",
      "status": "proposed",
      "structure_valid": true
    },
    "VS_SYSBP_STANDARDIZATION": {
      "task_id": "VS_SYSBP_STANDARDIZATION",
      "target_domain": "VS",
      "output_kind": "variables",
      "target_variables": [
        "VSSTRESC",
        "VSSTRESN",
        "VSSTRESU"
      ],
      "score": 1,
      "evidence": "专家金标准种子。",
      "uncertainties": "不是真实模型结果。",
      "status": "proposed",
      "structure_valid": true
    },
    "VS_DIABP_RECORD": {
      "task_id": "VS_DIABP_RECORD",
      "target_domain": "VS",
      "output_kind": "variables",
      "target_variables": [
        "VSTESTCD",
        "VSTEST",
        "VSORRES",
        "VSORRESU"
      ],
      "score": 1,
      "evidence": "专家金标准种子。",
      "uncertainties": "不是真实模型结果。",
      "status": "proposed",
      "structure_valid": true
    },
    "VS_DIABP_STANDARDIZATION": {
      "task_id": "VS_DIABP_STANDARDIZATION",
      "target_domain": "VS",
      "output_kind": "variables",
      "target_variables": [
        "VSSTRESC",
        "VSSTRESN",
        "VSSTRESU"
      ],
      "score": 1,
      "evidence": "专家金标准种子。",
      "uncertainties": "不是真实模型结果。",
      "status": "proposed",
      "structure_valid": true
    },
    "VS_PULSE_RECORD": {
      "task_id": "VS_PULSE_RECORD",
      "target_domain": "VS",
      "output_kind": "variables",
      "target_variables": [
        "VSTESTCD",
        "VSTEST",
        "VSORRES",
        "VSORRESU"
      ],
      "score": 1,
      "evidence": "专家金标准种子。",
      "uncertainties": "不是真实模型结果。",
      "status": "proposed",
      "structure_valid": true
    },
    "VS_PULSE_STANDARDIZATION": {
      "task_id": "VS_PULSE_STANDARDIZATION",
      "target_domain": "VS",
      "output_kind": "variables",
      "target_variables": [
        "VSSTRESC",
        "VSSTRESN",
        "VSSTRESU"
      ],
      "score": 1,
      "evidence": "专家金标准种子。",
      "uncertainties": "不是真实模型结果。",
      "status": "proposed",
      "structure_valid": true
    },
    "VS_SEQUENCE": {
      "task_id": "VS_SEQUENCE",
      "target_domain": "VS",
      "output_kind": "variables",
      "target_variables": [
        "VSSEQ"
      ],
      "score": 1,
      "evidence": "专家金标准种子。",
      "uncertainties": "不是真实模型结果。",
      "status": "proposed",
      "structure_valid": true
    },
    "VS_STUDY_DAY": {
      "task_id": "VS_STUDY_DAY",
      "target_domain": "VS",
      "output_kind": "variables",
      "target_variables": [
        "VSDY"
      ],
      "score": 1,
      "evidence": "专家金标准种子。",
      "uncertainties": "不是真实模型结果。",
      "status": "proposed",
      "structure_valid": true
    },
    "VS_BASELINE_FLAG": {
      "task_id": "VS_BASELINE_FLAG",
      "target_domain": "VS",
      "output_kind": "variables",
      "target_variables": [
        "VSBLFL"
      ],
      "score": 1,
      "evidence": "专家金标准种子。",
      "uncertainties": "不是真实模型结果。",
      "status": "proposed",
      "structure_valid": true
    }
  },
  "failures": [],
  "stage": "target_identification",
  "provider": "seed",
  "attempts": {
    "dm_atomic_v04": {
      "provider": "seed",
      "attempt_count": 0
    },
    "ae_atomic_v04": {
      "provider": "seed",
      "attempt_count": 0
    },
    "vs_atomic_v04": {
      "provider": "seed",
      "attempt_count": 0
    }
  }
}
