STUDYID,DOMAIN,USUBJID,SUBJID,RFSTDTC,RFICDTC,SITEID,AGE,AGEU,SEX,RACE,ETHNIC,ARMCD,ARM,ACTARMCD,ACTARM,COUNTRY
TRACE001,DM,TRACE001-701-1001,701-1001,2025-01-05,2024-12-20,701,42,YEARS,F,WHITE,NOT HISPANIC OR LATINO,PBO,Placebo,PBO,Placebo,USA
TRACE001,DM,TRACE001-701-1002,701-1002,2025-01-05,2024-12-21,701,57,YEARS,M,ASIAN,HISPANIC OR LATINO,TRT10,Trace Drug 10 mg,TRT10,Trace Drug 10 mg,USA
TRACE001,DM,TRACE001-701-1003,701-1003,2025-01-06,2024-12-22,701,35,YEARS,F,BLACK OR AFRICAN AMERICAN,NOT HISPANIC OR LATINO,TRT10,Trace Drug 10 mg,TRT10,Trace Drug 10 mg,CAN
TRACE001,DM,TRACE001-702-1001,702-1001,2025-01-07,2024-12-23,702,66,YEARS,M,WHITE,UNKNOWN,PBO,Placebo,PBO,Placebo,GBR
TRACE001,DM,TRACE001-702-1002,702-1002,2025-01-07,2024-12-24,702,49,YEARS,F,MULTIPLE,HISPANIC OR LATINO,TRT10,Trace Drug 10 mg,TRT10,Trace Drug 10 mg,GBR
TRACE001,DM,TRACE001-702-1003,702-1003,2025-01-08,2024-12-26,702,28,YEARS,M,AMERICAN INDIAN OR ALASKA NATIVE,NOT HISPANIC OR LATINO,TRT10,Trace Drug 10 mg,TRT10,Trace Drug 10 mg,USA
