STUDYID,DOMAIN,USUBJID,VSSEQ,VSTESTCD,VSTEST,VSPOS,VSORRES,VSORRESU,VSSTRESC,VSSTRESN,VSSTRESU,VISITNUM,VISIT,VSDTC,VSDY
TRACE001,VS,TRACE001-701-1001,1,DIABP,Diastolic Blood Pressure,SUPINE,78,mmHg,78,78,mmHg,-1,Screening 1,2024-12-20,-16
TRACE001,VS,TRACE001-701-1001,2,HEIGHT,Height,SUPINE,168,cm,168,168,cm,-1,Screening 1,2024-12-20,-16
TRACE001,VS,TRACE001-701-1001,3,PULSE,Pulse Rate,SUPINE,64,beats/min,64,64,beats/min,-1,Screening 1,2024-12-20,-16
TRACE001,VS,TRACE001-701-1001,4,SYSBP,Systolic Blood Pressure,SUPINE,122,mmHg,122,122,mmHg,-1,Screening 1,2024-12-20,-16
TRACE001,VS,TRACE001-701-1001,5,TEMP,Temperature,SUPINE,36.7,C,36.7,36.7,C,-1,Screening 1,2024-12-20,-16
TRACE001,VS,TRACE001-701-1001,6,WEIGHT,Weight,SUPINE,68,kg,68,68,kg,-1,Screening 1,2024-12-20,-16
TRACE001,VS,TRACE001-701-1001,7,DIABP,Diastolic Blood Pressure,SUPINE,76,mmHg,76,76,mmHg,2,Week 2,2025-01-19,15
TRACE001,VS,TRACE001-701-1001,8,PULSE,Pulse Rate,SUPINE,62,beats/min,62,62,beats/min,2,Week 2,2025-01-19,15
TRACE001,VS,TRACE001-701-1001,9,SYSBP,Systolic Blood Pressure,SUPINE,120,mmHg,120,120,mmHg,2,Week 2,2025-01-19,15
TRACE001,VS,TRACE001-701-1001,10,TEMP,Temperature,SUPINE,36.6,C,36.6,36.6,C,2,Week 2,2025-01-19,15
TRACE001,VS,TRACE001-701-1002,1,DIABP,Diastolic Blood Pressure,SITTING,82,mmHg,82,82,mmHg,-1,Screening 1,2024-12-21,-15
TRACE001,VS,TRACE001-701-1002,2,HEIGHT,Height,SITTING,181,cm,181,181,cm,-1,Screening 1,2024-12-21,-15
TRACE001,VS,TRACE001-701-1002,3,PULSE,Pulse Rate,SITTING,72,beats/min,72,72,beats/min,-1,Screening 1,2024-12-21,-15
TRACE001,VS,TRACE001-701-1002,4,SYSBP,Systolic Blood Pressure,SITTING,130,mmHg,130,130,mmHg,-1,Screening 1,2024-12-21,-15
TRACE001,VS,TRACE001-701-1002,5,TEMP,Temperature,SITTING,36.5,C,36.5,36.5,C,-1,Screening 1,2024-12-21,-15
TRACE001,VS,TRACE001-701-1002,6,WEIGHT,Weight,SITTING,86,kg,86,86,kg,-1,Screening 1,2024-12-21,-15
TRACE001,VS,TRACE001-701-1002,7,DIABP,Diastolic Blood Pressure,SITTING,80,mmHg,80,80,mmHg,2,Week 2,2025-01-19,15
TRACE001,VS,TRACE001-701-1002,8,PULSE,Pulse Rate,SITTING,70,beats/min,70,70,beats/min,2,Week 2,2025-01-19,15
TRACE001,VS,TRACE001-701-1002,9,SYSBP,Systolic Blood Pressure,SITTING,128,mmHg,128,128,mmHg,2,Week 2,2025-01-19,15
TRACE001,VS,TRACE001-701-1002,10,TEMP,Temperature,SITTING,36.7,C,36.7,36.7,C,2,Week 2,2025-01-19,15
TRACE001,VS,TRACE001-701-1003,1,DIABP,Diastolic Blood Pressure,SUPINE,74,mmHg,74,74,mmHg,-1,Screening 1,2024-12-22,-15
TRACE001,VS,TRACE001-701-1003,2,HEIGHT,Height,SUPINE,159,cm,159,159,cm,-1,Screening 1,2024-12-22,-15
TRACE001,VS,TRACE001-701-1003,3,PULSE,Pulse Rate,SUPINE,68,beats/min,68,68,beats/min,-1,Screening 1,2024-12-22,-15
TRACE001,VS,TRACE001-701-1003,4,SYSBP,Systolic Blood Pressure,SUPINE,116,mmHg,116,116,mmHg,-1,Screening 1,2024-12-22,-15
TRACE001,VS,TRACE001-701-1003,5,TEMP,Temperature,SUPINE,36.8,C,36.8,36.8,C,-1,Screening 1,2024-12-22,-15
TRACE001,VS,TRACE001-701-1003,6,WEIGHT,Weight,SUPINE,55,kg,55,55,kg,-1,Screening 1,2024-12-22,-15
TRACE001,VS,TRACE001-701-1003,7,DIABP,Diastolic Blood Pressure,SUPINE,72,mmHg,72,72,mmHg,2,Week 2,2025-01-20,15
TRACE001,VS,TRACE001-701-1003,8,PULSE,Pulse Rate,SUPINE,66,beats/min,66,66,beats/min,2,Week 2,2025-01-20,15
TRACE001,VS,TRACE001-701-1003,9,SYSBP,Systolic Blood Pressure,SUPINE,114,mmHg,114,114,mmHg,2,Week 2,2025-01-20,15
TRACE001,VS,TRACE001-701-1003,10,TEMP,Temperature,SUPINE,36.5,C,36.5,36.5,C,2,Week 2,2025-01-20,15
TRACE001,VS,TRACE001-702-1001,1,DIABP,Diastolic Blood Pressure,SITTING,86,mmHg,86,86,mmHg,-1,Screening 1,2024-12-23,-15
TRACE001,VS,TRACE001-702-1001,2,HEIGHT,Height,SITTING,174,cm,174,174,cm,-1,Screening 1,2024-12-23,-15
TRACE001,VS,TRACE001-702-1001,3,PULSE,Pulse Rate,SITTING,70,beats/min,70,70,beats/min,-1,Screening 1,2024-12-23,-15
TRACE001,VS,TRACE001-702-1001,4,SYSBP,Systolic Blood Pressure,SITTING,138,mmHg,138,138,mmHg,-1,Screening 1,2024-12-23,-15
TRACE001,VS,TRACE001-702-1001,5,TEMP,Temperature,SITTING,36.6,C,36.6,36.6,C,-1,Screening 1,2024-12-23,-15
TRACE001,VS,TRACE001-702-1001,6,WEIGHT,Weight,SITTING,79,kg,79,79,kg,-1,Screening 1,2024-12-23,-15
TRACE001,VS,TRACE001-702-1001,7,DIABP,Diastolic Blood Pressure,SITTING,84,mmHg,84,84,mmHg,2,Week 2,2025-01-21,15
TRACE001,VS,TRACE001-702-1001,8,PULSE,Pulse Rate,SITTING,68,beats/min,68,68,beats/min,2,Week 2,2025-01-21,15
TRACE001,VS,TRACE001-702-1001,9,SYSBP,Systolic Blood Pressure,SITTING,136,mmHg,136,136,mmHg,2,Week 2,2025-01-21,15
TRACE001,VS,TRACE001-702-1001,10,TEMP,Temperature,SITTING,36.8,C,36.8,36.8,C,2,Week 2,2025-01-21,15
TRACE001,VS,TRACE001-702-1002,1,DIABP,Diastolic Blood Pressure,STANDING,80,mmHg,80,80,mmHg,-1,Screening 1,2024-12-24,-14
TRACE001,VS,TRACE001-702-1002,2,HEIGHT,Height,STANDING,165,cm,165,165,cm,-1,Screening 1,2024-12-24,-14
TRACE001,VS,TRACE001-702-1002,3,PULSE,Pulse Rate,STANDING,76,beats/min,76,76,beats/min,-1,Screening 1,2024-12-24,-14
TRACE001,VS,TRACE001-702-1002,4,SYSBP,Systolic Blood Pressure,STANDING,124,mmHg,124,124,mmHg,-1,Screening 1,2024-12-24,-14
TRACE001,VS,TRACE001-702-1002,5,TEMP,Temperature,STANDING,37,C,37,37,C,-1,Screening 1,2024-12-24,-14
TRACE001,VS,TRACE001-702-1002,6,WEIGHT,Weight,STANDING,62,kg,62,62,kg,-1,Screening 1,2024-12-24,-14
TRACE001,VS,TRACE001-702-1002,7,DIABP,Diastolic Blood Pressure,STANDING,78,mmHg,78,78,mmHg,2,Week 2,2025-01-21,15
TRACE001,VS,TRACE001-702-1002,8,PULSE,Pulse Rate,STANDING,74,beats/min,74,74,beats/min,2,Week 2,2025-01-21,15
TRACE001,VS,TRACE001-702-1002,9,SYSBP,Systolic Blood Pressure,STANDING,122,mmHg,122,122,mmHg,2,Week 2,2025-01-21,15
TRACE001,VS,TRACE001-702-1002,10,TEMP,Temperature,STANDING,36.9,C,36.9,36.9,C,2,Week 2,2025-01-21,15
TRACE001,VS,TRACE001-702-1003,1,DIABP,Diastolic Blood Pressure,SUPINE,76,mmHg,76,76,mmHg,-1,Screening 1,2024-12-26,-13
TRACE001,VS,TRACE001-702-1003,2,HEIGHT,Height,SUPINE,177,cm,177,177,cm,-1,Screening 1,2024-12-26,-13
TRACE001,VS,TRACE001-702-1003,3,PULSE,Pulse Rate,SUPINE,62,beats/min,62,62,beats/min,-1,Screening 1,2024-12-26,-13
TRACE001,VS,TRACE001-702-1003,4,SYSBP,Systolic Blood Pressure,SUPINE,118,mmHg,118,118,mmHg,-1,Screening 1,2024-12-26,-13
TRACE001,VS,TRACE001-702-1003,5,TEMP,Temperature,SUPINE,36.4,C,36.4,36.4,C,-1,Screening 1,2024-12-26,-13
TRACE001,VS,TRACE001-702-1003,6,WEIGHT,Weight,SUPINE,74,kg,74,74,kg,-1,Screening 1,2024-12-26,-13
TRACE001,VS,TRACE001-702-1003,7,DIABP,Diastolic Blood Pressure,SUPINE,74,mmHg,74,74,mmHg,2,Week 2,2025-01-22,15
TRACE001,VS,TRACE001-702-1003,8,PULSE,Pulse Rate,SUPINE,60,beats/min,60,60,beats/min,2,Week 2,2025-01-22,15
TRACE001,VS,TRACE001-702-1003,9,SYSBP,Systolic Blood Pressure,SUPINE,116,mmHg,116,116,mmHg,2,Week 2,2025-01-22,15
TRACE001,VS,TRACE001-702-1003,10,TEMP,Temperature,SUPINE,36.5,C,36.5,36.5,C,2,Week 2,2025-01-22,15
