concept_id,candidate_rank,target_domain,categories,plan_json,recommendation_score,reason,uncertainties,status,review_required,provenance,group_id
AE_SOURCE_INTEGRATION,1,AE,source_integration,"{""steps"":[{""transform_id"":""merge_sources"",""source_keys"":[""ae_main.STUDY"",""ae_main.PATNUM"",""ae_main.AEID"",""sae_detail.STUDY"",""sae_detail.PATNUM"",""sae_detail.AEID"",""sae_detail.AESHOSP""],""target_variables"":[],""parameters"":{""left_dataset"":""ae_main"",""right_dataset"":""sae_detail"",""output_dataset"":""ae_merged"",""by"":{""STUDY"":""STUDY"",""PATNUM"":""PATNUM"",""AEID"":""AEID""},""relationship"":""one-to-one"",""join_type"":""left"",""select"":[""STUDY"",""PATNUM"",""AEID"",""AETERM"",""AEDECOD"",""AEBODSYS"",""AESEV"",""AESER"",""AEREL"",""AEOUTCOME"",""AESTDAT"",""AESTTIM"",""AEENDDAT"",""AEENDTIM"",""AEONGO"",""AESHOSP""],""conflict_policy"":""error""}}]}",1,"Merges ae_main and sae_detail using STUDY, PATNUM, AEID as join keys with one-to-one relationship and left join to preserve all AE records.","Assumes one-to-one relationship between ae_main and sae_detail; if not, merge may fail or produce duplicates.",proposed,TRUE,model,ae_connected_01
AE_CORE,1,AE,direct_assignment,"{""steps"":[{""transform_id"":""assign_no_ct"",""source_keys"":[""ae_merged.STUDY""],""target_variables"":[""STUDYID""],""parameters"":{}},{""transform_id"":""hardcode_no_ct"",""source_keys"":[],""target_variables"":[""DOMAIN""],""parameters"":{""value"":""AE""}},{""transform_id"":""assign_no_ct"",""source_keys"":[""ae_merged.PATNUM""],""target_variables"":[""USUBJID""],""parameters"":{}}]}",0.9,Direct assignment of STUDY to STUDYID and PATNUM to USUBJID after source integration; DOMAIN hardcoded to 'AE'.,"USUBJID may require mapping from PATNUM via DM_CORE; if PATNUM is not the direct subject identifier, conditional derivation may be needed.",proposed,TRUE,model,ae_connected_01
AE_TERMS,1,AE,direct_assignment | controlled_terminology,"{""steps"":[{""transform_id"":""assign_no_ct"",""source_keys"":[""ae_merged.AETERM""],""target_variables"":[""AETERM""],""parameters"":{}},{""transform_id"":""assign_no_ct"",""source_keys"":[""ae_merged.AEDECOD""],""target_variables"":[""AEDECOD""],""parameters"":{}},{""transform_id"":""assign_no_ct"",""source_keys"":[""ae_merged.AEBODSYS""],""target_variables"":[""AEBODSYS""],""parameters"":{}}]}",0.8,"Direct assignment of reported term, coded term, and body system; no controlled terminology mapping specified.",AEDECOD and AEBODSYS may require MedDRA dictionary mapping; source values may not be standard.,proposed,TRUE,model,ae_connected_01
AE_SAFETY,1,AE,controlled_terminology,"{""steps"":[{""transform_id"":""assign_ct"",""source_keys"":[""ae_merged.AESEV""],""target_variables"":[""AESEV""],""parameters"":{""codelist_id"":""AESEV""}},{""transform_id"":""assign_ct"",""source_keys"":[""ae_merged.AESER""],""target_variables"":[""AESER""],""parameters"":{""codelist_id"":""NY""}},{""transform_id"":""assign_ct"",""source_keys"":[""ae_merged.AESHOSP""],""target_variables"":[""AESHOSP""],""parameters"":{""codelist_id"":""NY""}}]}",0.9,"Maps severity, serious, and hospitalization to controlled terminology using standard codelists.",Source values for AESEV and AESER not specified; codelist mappings may need confirmation.,proposed,TRUE,model,ae_connected_01
AE_REL_OUTCOME,1,AE,controlled_terminology,"{""steps"":[{""transform_id"":""assign_ct"",""source_keys"":[""ae_merged.AEREL""],""target_variables"":[""AEREL""],""parameters"":{""codelist_id"":""AEREL""}},{""transform_id"":""assign_ct"",""source_keys"":[""ae_merged.AEOUTCOME""],""target_variables"":[""AEOUT""],""parameters"":{""codelist_id"":""AEOUT""}}]}",0.9,Maps causality and outcome to controlled terminology using standard codelists.,Source values for AEREL and AEOUTCOME not specified; codelist mappings may need confirmation.,proposed,TRUE,model,ae_connected_01
AE_START,1,AE,date_time_conversion | temporal_derivation,"{""steps"":[{""transform_id"":""to_iso8601_datetime"",""source_keys"":[""ae_merged.AESTDAT"",""ae_merged.AESTTIM""],""target_variables"":[""AESTDTC""],""parameters"":{""formats"":[""m/d/y"",""H:M""]}},{""transform_id"":""derive_study_day"",""source_keys"":[],""target_variables"":[""AESTDY""],""parameters"":{""target_date"":""AESTDTC"",""reference_date"":""RFSTDTC""}}]}",0.9,Converts start date and time to ISO 8601 datetime and derives study day from reference date.,"Date format not specified; assumed m/d/y and H:M. If format differs, needs_information.",proposed,TRUE,model,ae_connected_01
AE_END,1,AE,date_time_conversion | conditional_derivation | temporal_derivation,"{""steps"":[{""transform_id"":""to_iso8601_datetime"",""source_keys"":[""ae_merged.AEENDDAT"",""ae_merged.AEENDTIM""],""target_variables"":[""AEENDTC""],""parameters"":{""formats"":[""m/d/y"",""H:M""]}},{""transform_id"":""derive_ongoing_flag"",""source_keys"":[""ae_merged.AEONGO""],""target_variables"":[""AEENRF""],""parameters"":{""ongoing_value"":""ONGOING"",""affirmative_values"":[""Y"",""Yes""]}},{""transform_id"":""derive_study_day"",""source_keys"":[],""target_variables"":[""AEENDY""],""parameters"":{""target_date"":""AEENDTC"",""reference_date"":""RFSTDTC""}}]}",0.9,"Converts end date/time to ISO 8601, derives ongoing flag from AEONGO, and derives study day if end date present.",Date format not specified; ongoing handling may require conditional logic if AEONGO values differ.,proposed,TRUE,model,ae_connected_01
AE_SEQUENCE,1,AE,temporal_derivation,"{""steps"":[{""transform_id"":""derive_sequence"",""source_keys"":[],""target_variables"":[""AESEQ""],""parameters"":{""record_variables"":[""STUDYID"",""USUBJID"",""AESTDTC"",""AETERM""],""start_at"":1}}]}",1,Derives sequence number after sorting by subject and start date/time.,,proposed,TRUE,model,ae_connected_01
