concept_id,categories,classification_score,evidence,uncertainties,status,group_id
AE_SOURCE_INTEGRATION,source_integration,1,"Concept explicitly merges ae_main and sae_detail datasets using STUDY, PATNUM, AEID as join keys.",,proposed,ae_connected_01
AE_CORE,direct_assignment,0.9,Maps STUDYID and USUBJID from STUDY and PATNUM after source integration; no semantic transformation.,Requires DM_CORE for USUBJID derivation; may need conditional derivation if subject identifier mapping is not direct.,proposed,ae_connected_01
AE_TERMS,direct_assignment | controlled_terminology,0.8,AETERM is direct assignment; AEDECOD and AEBODSYS may require controlled terminology mapping to standard dictionaries.,Mapping to MedDRA not specified; may need external dictionary lookup.,proposed,ae_connected_01
AE_SAFETY,controlled_terminology,0.9,"AESEV, AESER, AESHOSP need mapping to controlled terminology (e.g., MILD/MODERATE/SEVERE, Y/N).",Source values for AESEV and AESER not specified; may require conditional derivation if mapping is not direct.,proposed,ae_connected_01
AE_REL_OUTCOME,controlled_terminology,0.9,"AEREL and AEOUTCOME need mapping to standard controlled terminology (e.g., AEOUT to RECOVERED/RESOLVED etc.).",Source values for AEREL and AEOUTCOME not specified; may require conditional derivation.,proposed,ae_connected_01
AE_START,date_time_conversion | temporal_derivation,0.9,AESTDAT and AESTTIM need conversion to ISO 8601; AESTDY derived from reference start date.,Date format not specified; may need needs_information if ambiguous.,proposed,ae_connected_01
AE_END,date_time_conversion | conditional_derivation | temporal_derivation,0.9,"AEENDDAT and AEENDTIM need conversion; AEONGO indicates ongoing, requiring conditional derivation for AEENRF and possibly AEENDTC.",Date format not specified; ongoing handling may require conditional logic.,proposed,ae_connected_01
AE_SEQUENCE,temporal_derivation,1,AESEQ is a sequence number derived after sorting by subject and start date.,,proposed,ae_connected_01
