[
  {
    "mapping_id": "DM001",
    "candidate_rank": 1,
    "source_dataset": "dm_raw",
    "source_variable": "STUDY",
    "target_domain": "DM",
    "target_variable": "STUDYID",
    "target_value": "",
    "mapping_type": "direct",
    "transform_id": "direct_map",
    "transform_parameters": "[]",
    "recommendation_score": 1,
    "reason": "参考种子：来自专家编写的映射模板，用于离线演示和测试。",
    "uncertainties": "这不是真实模型运行结果，不能用于评价模型准确率。",
    "review_required": true,
    "provenance": "reference_seed"
  },
  {
    "mapping_id": "DM003",
    "candidate_rank": 1,
    "source_dataset": "dm_raw",
    "source_variable": "STUDY | PATNUM",
    "target_domain": "DM",
    "target_variable": "USUBJID",
    "target_value": "",
    "mapping_type": "combine",
    "transform_id": "derive_usubjid",
    "transform_parameters": "{\"separator\":\"-\"}",
    "recommendation_score": 1,
    "reason": "参考种子：来自专家编写的映射模板，用于离线演示和测试。",
    "uncertainties": "这不是真实模型运行结果，不能用于评价模型准确率。",
    "review_required": true,
    "provenance": "reference_seed"
  },
  {
    "mapping_id": "DM004",
    "candidate_rank": 1,
    "source_dataset": "dm_raw",
    "source_variable": "PATNUM",
    "target_domain": "DM",
    "target_variable": "SUBJID",
    "target_value": "",
    "mapping_type": "direct",
    "transform_id": "direct_map",
    "transform_parameters": "[]",
    "recommendation_score": 1,
    "reason": "参考种子：来自专家编写的映射模板，用于离线演示和测试。",
    "uncertainties": "这不是真实模型运行结果，不能用于评价模型准确率。",
    "review_required": true,
    "provenance": "reference_seed"
  },
  {
    "mapping_id": "DM005",
    "candidate_rank": 1,
    "source_dataset": "dm_raw",
    "source_variable": "FIRST_DOSE_DT",
    "target_domain": "DM",
    "target_variable": "RFSTDTC",
    "target_value": "",
    "mapping_type": "date_conversion",
    "transform_id": "to_iso8601_date",
    "transform_parameters": "{\"formats\":[\"m/d/y\",\"dd-mmm-yyyy\",\"y-m-d\"]}",
    "recommendation_score": 1,
    "reason": "参考种子：来自专家编写的映射模板，用于离线演示和测试。",
    "uncertainties": "这不是真实模型运行结果，不能用于评价模型准确率。",
    "review_required": true,
    "provenance": "reference_seed"
  },
  {
    "mapping_id": "DM006",
    "candidate_rank": 1,
    "source_dataset": "dm_raw",
    "source_variable": "IC_DT",
    "target_domain": "DM",
    "target_variable": "RFICDTC",
    "target_value": "",
    "mapping_type": "date_conversion",
    "transform_id": "to_iso8601_date",
    "transform_parameters": "{\"formats\":[\"m/d/y\",\"dd-mmm-yyyy\",\"y-m-d\"]}",
    "recommendation_score": 1,
    "reason": "参考种子：来自专家编写的映射模板，用于离线演示和测试。",
    "uncertainties": "这不是真实模型运行结果，不能用于评价模型准确率。",
    "review_required": true,
    "provenance": "reference_seed"
  },
  {
    "mapping_id": "DM017",
    "candidate_rank": 1,
    "source_dataset": "dm_raw",
    "source_variable": "PATNUM",
    "target_domain": "DM",
    "target_variable": "SITEID",
    "target_value": "",
    "mapping_type": "custom",
    "transform_id": "custom_transform",
    "transform_parameters": "{\"name\":\"extract_siteid\"}",
    "recommendation_score": 1,
    "reason": "参考种子：来自专家编写的映射模板，用于离线演示和测试。",
    "uncertainties": "这不是真实模型运行结果，不能用于评价模型准确率。",
    "review_required": true,
    "provenance": "reference_seed"
  },
  {
    "mapping_id": "DM007",
    "candidate_rank": 1,
    "source_dataset": "dm_raw",
    "source_variable": "IT.AGE",
    "target_domain": "DM",
    "target_variable": "AGE",
    "target_value": "",
    "mapping_type": "direct",
    "transform_id": "direct_map",
    "transform_parameters": "[]",
    "recommendation_score": 1,
    "reason": "参考种子：来自专家编写的映射模板，用于离线演示和测试。",
    "uncertainties": "这不是真实模型运行结果，不能用于评价模型准确率。",
    "review_required": true,
    "provenance": "reference_seed"
  },
  {
    "mapping_id": "DM009",
    "candidate_rank": 1,
    "source_dataset": "dm_raw",
    "source_variable": "IT.SEX",
    "target_domain": "DM",
    "target_variable": "SEX",
    "target_value": "",
    "mapping_type": "controlled_term",
    "transform_id": "map_controlled_term",
    "transform_parameters": "{\"terms\":{\"Female\":\"F\",\"Male\":\"M\",\"Unknown\":\"U\"}}",
    "recommendation_score": 1,
    "reason": "参考种子：来自专家编写的映射模板，用于离线演示和测试。",
    "uncertainties": "这不是真实模型运行结果，不能用于评价模型准确率。",
    "review_required": true,
    "provenance": "reference_seed"
  },
  {
    "mapping_id": "DM010",
    "candidate_rank": 1,
    "source_dataset": "dm_raw",
    "source_variable": "IT.ETHNIC",
    "target_domain": "DM",
    "target_variable": "ETHNIC",
    "target_value": "",
    "mapping_type": "controlled_term",
    "transform_id": "map_controlled_term",
    "transform_parameters": "{\"terms\":{\"Hispanic or Latino\":\"HISPANIC OR LATINO\",\"Not Hispanic or Latino\":\"NOT HISPANIC OR LATINO\",\"Unknown\":\"UNKNOWN\",\"Not Reported\":\"NOT REPORTED\"}}",
    "recommendation_score": 1,
    "reason": "参考种子：来自专家编写的映射模板，用于离线演示和测试。",
    "uncertainties": "这不是真实模型运行结果，不能用于评价模型准确率。",
    "review_required": true,
    "provenance": "reference_seed"
  },
  {
    "mapping_id": "DM011",
    "candidate_rank": 1,
    "source_dataset": "dm_raw",
    "source_variable": "IT.RACE",
    "target_domain": "DM",
    "target_variable": "RACE",
    "target_value": "",
    "mapping_type": "controlled_term",
    "transform_id": "map_controlled_term",
    "transform_parameters": "{\"terms\":{\"White\":\"WHITE\",\"Asian\":\"ASIAN\",\"Black or African American\":\"BLACK OR AFRICAN AMERICAN\",\"American Indian or Alaska Native\":\"AMERICAN INDIAN OR ALASKA NATIVE\",\"Multiple\":\"MULTIPLE\",\"Unknown\":\"UNKNOWN\"}}",
    "recommendation_score": 1,
    "reason": "参考种子：来自专家编写的映射模板，用于离线演示和测试。",
    "uncertainties": "这不是真实模型运行结果，不能用于评价模型准确率。",
    "review_required": true,
    "provenance": "reference_seed"
  },
  {
    "mapping_id": "DM012",
    "candidate_rank": 1,
    "source_dataset": "dm_raw",
    "source_variable": "COUNTRY",
    "target_domain": "DM",
    "target_variable": "COUNTRY",
    "target_value": "",
    "mapping_type": "direct",
    "transform_id": "direct_map",
    "transform_parameters": "[]",
    "recommendation_score": 1,
    "reason": "参考种子：来自专家编写的映射模板，用于离线演示和测试。",
    "uncertainties": "这不是真实模型运行结果，不能用于评价模型准确率。",
    "review_required": true,
    "provenance": "reference_seed"
  },
  {
    "mapping_id": "DM013",
    "candidate_rank": 1,
    "source_dataset": "dm_raw",
    "source_variable": "PLANNED_ARMCD",
    "target_domain": "DM",
    "target_variable": "ARMCD",
    "target_value": "",
    "mapping_type": "direct",
    "transform_id": "direct_map",
    "transform_parameters": "[]",
    "recommendation_score": 1,
    "reason": "参考种子：来自专家编写的映射模板，用于离线演示和测试。",
    "uncertainties": "这不是真实模型运行结果，不能用于评价模型准确率。",
    "review_required": true,
    "provenance": "reference_seed"
  },
  {
    "mapping_id": "DM014",
    "candidate_rank": 1,
    "source_dataset": "dm_raw",
    "source_variable": "PLANNED_ARM",
    "target_domain": "DM",
    "target_variable": "ARM",
    "target_value": "",
    "mapping_type": "direct",
    "transform_id": "direct_map",
    "transform_parameters": "[]",
    "recommendation_score": 1,
    "reason": "参考种子：来自专家编写的映射模板，用于离线演示和测试。",
    "uncertainties": "这不是真实模型运行结果，不能用于评价模型准确率。",
    "review_required": true,
    "provenance": "reference_seed"
  },
  {
    "mapping_id": "DM015",
    "candidate_rank": 1,
    "source_dataset": "dm_raw",
    "source_variable": "ACTUAL_ARMCD",
    "target_domain": "DM",
    "target_variable": "ACTARMCD",
    "target_value": "",
    "mapping_type": "direct",
    "transform_id": "direct_map",
    "transform_parameters": "[]",
    "recommendation_score": 1,
    "reason": "参考种子：来自专家编写的映射模板，用于离线演示和测试。",
    "uncertainties": "这不是真实模型运行结果，不能用于评价模型准确率。",
    "review_required": true,
    "provenance": "reference_seed"
  },
  {
    "mapping_id": "DM016",
    "candidate_rank": 1,
    "source_dataset": "dm_raw",
    "source_variable": "ACTUAL_ARM",
    "target_domain": "DM",
    "target_variable": "ACTARM",
    "target_value": "",
    "mapping_type": "direct",
    "transform_id": "direct_map",
    "transform_parameters": "[]",
    "recommendation_score": 1,
    "reason": "参考种子：来自专家编写的映射模板，用于离线演示和测试。",
    "uncertainties": "这不是真实模型运行结果，不能用于评价模型准确率。",
    "review_required": true,
    "provenance": "reference_seed"
  },
  {
    "mapping_id": "AE001",
    "candidate_rank": 1,
    "source_dataset": "ae_raw",
    "source_variable": "STUDY",
    "target_domain": "AE",
    "target_variable": "STUDYID",
    "target_value": "",
    "mapping_type": "direct",
    "transform_id": "direct_map",
    "transform_parameters": "[]",
    "recommendation_score": 1,
    "reason": "参考种子：来自专家编写的映射模板，用于离线演示和测试。",
    "uncertainties": "这不是真实模型运行结果，不能用于评价模型准确率。",
    "review_required": true,
    "provenance": "reference_seed"
  },
  {
    "mapping_id": "AE003",
    "candidate_rank": 1,
    "source_dataset": "ae_raw",
    "source_variable": "STUDY | PATNUM",
    "target_domain": "AE",
    "target_variable": "USUBJID",
    "target_value": "",
    "mapping_type": "combine",
    "transform_id": "derive_usubjid",
    "transform_parameters": "{\"separator\":\"-\"}",
    "recommendation_score": 1,
    "reason": "参考种子：来自专家编写的映射模板，用于离线演示和测试。",
    "uncertainties": "这不是真实模型运行结果，不能用于评价模型准确率。",
    "review_required": true,
    "provenance": "reference_seed"
  },
  {
    "mapping_id": "AE005",
    "candidate_rank": 1,
    "source_dataset": "ae_raw",
    "source_variable": "IT.AETERM",
    "target_domain": "AE",
    "target_variable": "AETERM",
    "target_value": "",
    "mapping_type": "direct",
    "transform_id": "direct_map",
    "transform_parameters": "[]",
    "recommendation_score": 1,
    "reason": "参考种子：来自专家编写的映射模板，用于离线演示和测试。",
    "uncertainties": "这不是真实模型运行结果，不能用于评价模型准确率。",
    "review_required": true,
    "provenance": "reference_seed"
  },
  {
    "mapping_id": "AE006",
    "candidate_rank": 1,
    "source_dataset": "ae_raw",
    "source_variable": "AEDECOD",
    "target_domain": "AE",
    "target_variable": "AEDECOD",
    "target_value": "",
    "mapping_type": "direct",
    "transform_id": "direct_map",
    "transform_parameters": "[]",
    "recommendation_score": 1,
    "reason": "参考种子：来自专家编写的映射模板，用于离线演示和测试。",
    "uncertainties": "这不是真实模型运行结果，不能用于评价模型准确率。",
    "review_required": true,
    "provenance": "reference_seed"
  },
  {
    "mapping_id": "AE007",
    "candidate_rank": 1,
    "source_dataset": "ae_raw",
    "source_variable": "AEBODSYS",
    "target_domain": "AE",
    "target_variable": "AEBODSYS",
    "target_value": "",
    "mapping_type": "custom",
    "transform_id": "custom_transform",
    "transform_parameters": "{\"name\":\"uppercase\"}",
    "recommendation_score": 1,
    "reason": "参考种子：来自专家编写的映射模板，用于离线演示和测试。",
    "uncertainties": "这不是真实模型运行结果，不能用于评价模型准确率。",
    "review_required": true,
    "provenance": "reference_seed"
  },
  {
    "mapping_id": "AE008",
    "candidate_rank": 1,
    "source_dataset": "ae_raw",
    "source_variable": "IT.AESEV",
    "target_domain": "AE",
    "target_variable": "AESEV",
    "target_value": "",
    "mapping_type": "controlled_term",
    "transform_id": "map_controlled_term",
    "transform_parameters": "{\"terms\":{\"Mild Adverse Event\":\"MILD\",\"Moderate Adverse Event\":\"MODERATE\",\"Severe Adverse Event\":\"SEVERE\"}}",
    "recommendation_score": 1,
    "reason": "参考种子：来自专家编写的映射模板，用于离线演示和测试。",
    "uncertainties": "这不是真实模型运行结果，不能用于评价模型准确率。",
    "review_required": true,
    "provenance": "reference_seed"
  },
  {
    "mapping_id": "AE009",
    "candidate_rank": 1,
    "source_dataset": "ae_raw",
    "source_variable": "IT.AESER",
    "target_domain": "AE",
    "target_variable": "AESER",
    "target_value": "",
    "mapping_type": "controlled_term",
    "transform_id": "map_controlled_term",
    "transform_parameters": "{\"terms\":{\"Yes\":\"Y\",\"No\":\"N\"}}",
    "recommendation_score": 1,
    "reason": "参考种子：来自专家编写的映射模板，用于离线演示和测试。",
    "uncertainties": "这不是真实模型运行结果，不能用于评价模型准确率。",
    "review_required": true,
    "provenance": "reference_seed"
  },
  {
    "mapping_id": "AE010",
    "candidate_rank": 1,
    "source_dataset": "ae_raw",
    "source_variable": "IT.AEREL",
    "target_domain": "AE",
    "target_variable": "AEREL",
    "target_value": "",
    "mapping_type": "controlled_term",
    "transform_id": "map_controlled_term",
    "transform_parameters": "{\"terms\":{\"Probably Related\":\"PROBABLE\",\"Possibly Related\":\"POSSIBLE\",\"Unlikely Related\":\"UNLIKELY\",\"Not Related\":\"NOT RELATED\"}}",
    "recommendation_score": 1,
    "reason": "参考种子：来自专家编写的映射模板，用于离线演示和测试。",
    "uncertainties": "这不是真实模型运行结果，不能用于评价模型准确率。",
    "review_required": true,
    "provenance": "reference_seed"
  },
  {
    "mapping_id": "AE011",
    "candidate_rank": 1,
    "source_dataset": "ae_raw",
    "source_variable": "AEOUTCOME",
    "target_domain": "AE",
    "target_variable": "AEOUT",
    "target_value": "",
    "mapping_type": "controlled_term",
    "transform_id": "map_controlled_term",
    "transform_parameters": "{\"terms\":{\"Recovered/Resolved\":\"RECOVERED/RESOLVED\",\"Recovering/Resolving\":\"RECOVERING/RESOLVING\",\"Not Recovered/not Resolved\":\"NOT RECOVERED/NOT RESOLVED\",\"Fatal\":\"FATAL\",\"Unknown\":\"UNKNOWN\"}}",
    "recommendation_score": 1,
    "reason": "参考种子：来自专家编写的映射模板，用于离线演示和测试。",
    "uncertainties": "这不是真实模型运行结果，不能用于评价模型准确率。",
    "review_required": true,
    "provenance": "reference_seed"
  },
  {
    "mapping_id": "AE012",
    "candidate_rank": 1,
    "source_dataset": "ae_raw",
    "source_variable": "IT.AESTDAT",
    "target_domain": "AE",
    "target_variable": "AESTDTC",
    "target_value": "",
    "mapping_type": "date_conversion",
    "transform_id": "to_iso8601_date",
    "transform_parameters": "{\"formats\":[\"m/d/y\",\"dd-mmm-yyyy\",\"y-m-d\"]}",
    "recommendation_score": 1,
    "reason": "参考种子：来自专家编写的映射模板，用于离线演示和测试。",
    "uncertainties": "这不是真实模型运行结果，不能用于评价模型准确率。",
    "review_required": true,
    "provenance": "reference_seed"
  },
  {
    "mapping_id": "AE013",
    "candidate_rank": 1,
    "source_dataset": "ae_raw",
    "source_variable": "IT.AEENDAT",
    "target_domain": "AE",
    "target_variable": "AEENDTC",
    "target_value": "",
    "mapping_type": "date_conversion",
    "transform_id": "to_iso8601_date",
    "transform_parameters": "{\"formats\":[\"m/d/y\",\"dd-mmm-yyyy\",\"y-m-d\"]}",
    "recommendation_score": 1,
    "reason": "参考种子：来自专家编写的映射模板，用于离线演示和测试。",
    "uncertainties": "这不是真实模型运行结果，不能用于评价模型准确率。",
    "review_required": true,
    "provenance": "reference_seed"
  },
  {
    "mapping_id": "AE014",
    "candidate_rank": 1,
    "source_dataset": "ae_raw",
    "source_variable": "IT.AESHOSP",
    "target_domain": "AE",
    "target_variable": "AESHOSP",
    "target_value": "",
    "mapping_type": "controlled_term",
    "transform_id": "map_controlled_term",
    "transform_parameters": "{\"terms\":{\"Yes\":\"Y\",\"No\":\"N\"}}",
    "recommendation_score": 1,
    "reason": "参考种子：来自专家编写的映射模板，用于离线演示和测试。",
    "uncertainties": "这不是真实模型运行结果，不能用于评价模型准确率。",
    "review_required": true,
    "provenance": "reference_seed"
  },
  {
    "mapping_id": "AE015",
    "candidate_rank": 1,
    "source_dataset": "ae_raw",
    "source_variable": "IT.AEENDAT",
    "target_domain": "AE",
    "target_variable": "AEENRF",
    "target_value": "",
    "mapping_type": "custom",
    "transform_id": "custom_transform",
    "transform_parameters": "{\"name\":\"ongoing_if_missing\"}",
    "recommendation_score": 1,
    "reason": "参考种子：来自专家编写的映射模板，用于离线演示和测试。",
    "uncertainties": "这不是真实模型运行结果，不能用于评价模型准确率。",
    "review_required": true,
    "provenance": "reference_seed"
  },
  {
    "mapping_id": "VS001",
    "candidate_rank": 1,
    "source_dataset": "vs_raw",
    "source_variable": "STUDY",
    "target_domain": "VS",
    "target_variable": "STUDYID",
    "target_value": "",
    "mapping_type": "direct",
    "transform_id": "direct_map",
    "transform_parameters": "[]",
    "recommendation_score": 1,
    "reason": "参考种子：来自专家编写的映射模板，用于离线演示和测试。",
    "uncertainties": "这不是真实模型运行结果，不能用于评价模型准确率。",
    "review_required": true,
    "provenance": "reference_seed"
  },
  {
    "mapping_id": "VS003",
    "candidate_rank": 1,
    "source_dataset": "vs_raw",
    "source_variable": "STUDY | PATNUM",
    "target_domain": "VS",
    "target_variable": "USUBJID",
    "target_value": "",
    "mapping_type": "combine",
    "transform_id": "derive_usubjid",
    "transform_parameters": "{\"separator\":\"-\"}",
    "recommendation_score": 1,
    "reason": "参考种子：来自专家编写的映射模板，用于离线演示和测试。",
    "uncertainties": "这不是真实模型运行结果，不能用于评价模型准确率。",
    "review_required": true,
    "provenance": "reference_seed"
  },
  {
    "mapping_id": "VS005",
    "candidate_rank": 1,
    "source_dataset": "vs_raw",
    "source_variable": "VTLD",
    "target_domain": "VS",
    "target_variable": "VSDTC",
    "target_value": "",
    "mapping_type": "date_conversion",
    "transform_id": "to_iso8601_date",
    "transform_parameters": "{\"formats\":[\"dd-mmm-yyyy\",\"m/d/y\",\"y-m-d\"]}",
    "recommendation_score": 1,
    "reason": "参考种子：来自专家编写的映射模板，用于离线演示和测试。",
    "uncertainties": "这不是真实模型运行结果，不能用于评价模型准确率。",
    "review_required": true,
    "provenance": "reference_seed"
  },
  {
    "mapping_id": "VS006",
    "candidate_rank": 1,
    "source_dataset": "vs_raw",
    "source_variable": "SUBPOS",
    "target_domain": "VS",
    "target_variable": "VSPOS",
    "target_value": "",
    "mapping_type": "custom",
    "transform_id": "custom_transform",
    "transform_parameters": "{\"name\":\"uppercase\"}",
    "recommendation_score": 1,
    "reason": "参考种子：来自专家编写的映射模板，用于离线演示和测试。",
    "uncertainties": "这不是真实模型运行结果，不能用于评价模型准确率。",
    "review_required": true,
    "provenance": "reference_seed"
  },
  {
    "mapping_id": "VS007",
    "candidate_rank": 1,
    "source_dataset": "vs_raw",
    "source_variable": "INSTANCE",
    "target_domain": "VS",
    "target_variable": "VISIT",
    "target_value": "",
    "mapping_type": "direct",
    "transform_id": "direct_map",
    "transform_parameters": "[]",
    "recommendation_score": 1,
    "reason": "参考种子：来自专家编写的映射模板，用于离线演示和测试。",
    "uncertainties": "这不是真实模型运行结果，不能用于评价模型准确率。",
    "review_required": true,
    "provenance": "reference_seed"
  },
  {
    "mapping_id": "VS008",
    "candidate_rank": 1,
    "source_dataset": "vs_raw",
    "source_variable": "INSTANCE",
    "target_domain": "VS",
    "target_variable": "VISITNUM",
    "target_value": "",
    "mapping_type": "custom",
    "transform_id": "derive_visitnum",
    "transform_parameters": "{\"terms\":{\"Screening 1\":-1,\"Week 2\":2}}",
    "recommendation_score": 1,
    "reason": "参考种子：来自专家编写的映射模板，用于离线演示和测试。",
    "uncertainties": "这不是真实模型运行结果，不能用于评价模型准确率。",
    "review_required": true,
    "provenance": "reference_seed"
  },
  {
    "mapping_id": "VS101",
    "candidate_rank": 1,
    "source_dataset": "vs_raw",
    "source_variable": "IT.HEIGHT_VSORRES",
    "target_domain": "VS",
    "target_variable": "VSTESTCD",
    "target_value": "HEIGHT",
    "mapping_type": "transpose",
    "transform_id": "transpose_findings",
    "transform_parameters": "[]",
    "recommendation_score": 1,
    "reason": "参考种子：来自专家编写的映射模板，用于离线演示和测试。",
    "uncertainties": "这不是真实模型运行结果，不能用于评价模型准确率。",
    "review_required": true,
    "provenance": "reference_seed"
  },
  {
    "mapping_id": "VS102",
    "candidate_rank": 1,
    "source_dataset": "vs_raw",
    "source_variable": "IT.WEIGHT",
    "target_domain": "VS",
    "target_variable": "VSTESTCD",
    "target_value": "WEIGHT",
    "mapping_type": "transpose",
    "transform_id": "transpose_findings",
    "transform_parameters": "[]",
    "recommendation_score": 1,
    "reason": "参考种子：来自专家编写的映射模板，用于离线演示和测试。",
    "uncertainties": "这不是真实模型运行结果，不能用于评价模型准确率。",
    "review_required": true,
    "provenance": "reference_seed"
  },
  {
    "mapping_id": "VS103",
    "candidate_rank": 1,
    "source_dataset": "vs_raw",
    "source_variable": "IT.TEMP",
    "target_domain": "VS",
    "target_variable": "VSTESTCD",
    "target_value": "TEMP",
    "mapping_type": "transpose",
    "transform_id": "transpose_findings",
    "transform_parameters": "[]",
    "recommendation_score": 1,
    "reason": "参考种子：来自专家编写的映射模板，用于离线演示和测试。",
    "uncertainties": "这不是真实模型运行结果，不能用于评价模型准确率。",
    "review_required": true,
    "provenance": "reference_seed"
  },
  {
    "mapping_id": "VS104",
    "candidate_rank": 1,
    "source_dataset": "vs_raw",
    "source_variable": "SYS_BP",
    "target_domain": "VS",
    "target_variable": "VSTESTCD",
    "target_value": "SYSBP",
    "mapping_type": "transpose",
    "transform_id": "transpose_findings",
    "transform_parameters": "[]",
    "recommendation_score": 1,
    "reason": "参考种子：来自专家编写的映射模板，用于离线演示和测试。",
    "uncertainties": "这不是真实模型运行结果，不能用于评价模型准确率。",
    "review_required": true,
    "provenance": "reference_seed"
  },
  {
    "mapping_id": "VS105",
    "candidate_rank": 1,
    "source_dataset": "vs_raw",
    "source_variable": "DIA_BP",
    "target_domain": "VS",
    "target_variable": "VSTESTCD",
    "target_value": "DIABP",
    "mapping_type": "transpose",
    "transform_id": "transpose_findings",
    "transform_parameters": "[]",
    "recommendation_score": 1,
    "reason": "参考种子：来自专家编写的映射模板，用于离线演示和测试。",
    "uncertainties": "这不是真实模型运行结果，不能用于评价模型准确率。",
    "review_required": true,
    "provenance": "reference_seed"
  },
  {
    "mapping_id": "VS106",
    "candidate_rank": 1,
    "source_dataset": "vs_raw",
    "source_variable": "PULSE",
    "target_domain": "VS",
    "target_variable": "VSTESTCD",
    "target_value": "PULSE",
    "mapping_type": "transpose",
    "transform_id": "transpose_findings",
    "transform_parameters": "[]",
    "recommendation_score": 1,
    "reason": "参考种子：来自专家编写的映射模板，用于离线演示和测试。",
    "uncertainties": "这不是真实模型运行结果，不能用于评价模型准确率。",
    "review_required": true,
    "provenance": "reference_seed"
  }
]
