[
  {
    "concept_id": "DM_CORE",
    "candidate_rank": 1,
    "target_domain": "DM",
    "categories": ["source_integration", "direct_assignment"],
    "steps": [],
    "recommendation_score": 0,
    "reason": "无法在不猜测的情况下覆盖目标DM核心必需字段（STUDYID、DOMAIN、USUBJID、SUBJID、SITEID）。源refs仅提供STUDY和PATNUM，缺少SITEID映射来源；USUBJID/SUBJID是否需要对PATNUM进行格式化或拆分也未说明。",
    "uncertainties": "缺少SITEID来源变量；PATNUM的组成和格式未知；USUBJID的分隔符/派生格式未知，不能可靠选择derive_usubjid或combine_fields参数。",
    "status": "needs_information",
    "review_required": true,
    "provenance": "model",
    "group_id": "dm_connected_01"
  },
  {
    "concept_id": "DM_REFERENCE_START",
    "candidate_rank": 1,
    "target_domain": "DM",
    "categories": ["source_integration", "date_time_conversion", "field_combination", "conditional_derivation"],
    "steps": [],
    "recommendation_score": 0,
    "reason": "目标RFSTDTC可从ex_a_raw和ex_b_raw中按受试者选择参考起始日期时间，但日期/时间格式未知、选择规则不明确，并且无法确认两个来源的记录合并规则及缺失值处理。",
    "uncertainties": "待确认：EXSTDAT/DOSE_DATE的日期格式；EXSTTIM/DOSE_TIME的时间格式；RFSTDTC应取最早(min)还是最晚(max)日期；同一受试者多个记录的合并规则；若只有日期而无时间，RFSTDTC是否允许只映射日期。",
    "status": "needs_information",
    "review_required": true,
    "provenance": "model",
    "group_id": "dm_connected_01"
  },
  {
    "concept_id": "DM_CONSENT",
    "candidate_rank": 1,
    "target_domain": "DM",
    "categories": "date_time_conversion",
    "steps": [],
    "recommendation_score": 0,
    "reason": "源字段IC_DT映射至RFICDTC需要日期时间转换，但IC_DT的格式未知，且未说明是否允许仅日期或需要推导/补充时间部分。",
    "uncertainties": "IC_DT的字符/数值/日期类型及格式待确认；RFICDTC需要日期级精度还是日期时间级精度；是否存在未知标记或不完整日期。",
    "status": "needs_information",
    "review_required": true,
    "provenance": "model",
    "group_id": "dm_connected_01"
  },
  {
    "concept_id": "DM_DEMOGRAPHICS",
    "candidate_rank": 1,
    "target_domain": "DM",
    "categories": ["direct_assignment", "controlled_terminology", "conditional_derivation"],
    "steps": [],
    "recommendation_score": 0,
    "reason": "AGE的单位、SEX/ETHNIC/RACE源值到目标受控术语的映射关系、COUNTRY编码规则均未提供；当前函数卡没有可用的单位换算转换，无法在缺少这些信息时生成可信候选方案。",
    "uncertainties": "AGE单位是否为YEARS？是否需要单位换算；SEX/ETHNIC/RACE各源值枚举和目标术语表的映射需确认；COUNTRY源值是否为ISO代码、国家名称或需对照表映射；无适用的codelist_id和conversion_set_id。",
    "status": "needs_information",
    "review_required": true,
    "provenance": "model",
    "group_id": "dm_connected_01"
  },
  {
    "concept_id": "DM_TREATMENT",
    "candidate_rank": 1,
    "target_domain": "DM",
    "categories": "direct_assignment",
    "steps": [
      {
        "transform_id": "assign_no_ct",
        "source_keys": [
          "dm_subject.PLANNED_ARMCD"
        ],
        "target_variables": [
          "ARMCD"
        ],
        "parameters": {}
      },
      {
        "transform_id": "assign_no_ct",
        "source_keys": [
          "dm_subject.PLANNED_ARM"
        ],
        "target_variables": [
          "ARM"
        ],
        "parameters": {}
      },
      {
        "transform_id": "assign_no_ct",
        "source_keys": [
          "dm_subject.ACTUAL_ARMCD"
        ],
        "target_variables": [
          "ACTARMCD"
        ],
        "parameters": {}
      },
      {
        "transform_id": "assign_no_ct",
        "source_keys": [
          "dm_subject.ACTUAL_ARM"
        ],
        "target_variables": [
          "ACTARM"
        ],
        "parameters": {}
      }
    ],
    "recommendation_score": 0.9,
    "reason": "四个计划/实际治疗字段均为不需要受控术语的直接赋值，源字段与目标变量结构一一对应，且同一记录粒度内无合并或派生逻辑。",
    "uncertainties": "未提供计划/实际ARMCD、ARM的受控术语或组合校验规则；直接赋值后可进行人工核对。",
    "status": "proposed",
    "review_required": true,
    "provenance": "model",
    "group_id": "dm_connected_01"
  }
]
