mapping_id,candidate_rank,source_dataset,source_variable,target_domain,target_variable,target_value,mapping_type,transform_id,transform_parameters,recommendation_score,reason,uncertainties,review_required,provenance
AE012,1,ae_raw,IT.AESTDAT,AE,AESTDTC,,date_conversion,to_iso8601_date,"{""source_format"":""dd/mm/yyyy""}",90,Adverse event start date maps directly to SDTM AE AESTDTC with ISO 8601 date conversion.,Date format is ambiguous; assumes dd/mm/yyyy based on common clinical practice but needs verification against source data.,TRUE,model
AE012,2,ae_raw,IT.AESTDAT,AE,AESTDY,,custom,derive_study_day,"{""reference_variable"":""RFSTDTC"",""date_format"":""dd/mm/yyyy""}",70,Alternative to derive study day from start date relative to subject reference start date.,"Requires reference start date variable from DM domain; if not available, this mapping is not applicable.",TRUE,model
AE013,1,ae_raw,IT.AEENDAT,AE,AEENDTC,,date_conversion,to_iso8601_date,"{""source_format"":""dd/mm/yyyy""}",90,Adverse event end date maps directly to SDTM AE AEENDTC with ISO 8601 date conversion.,Date format is ambiguous; assumes dd/mm/yyyy based on common clinical practice but needs verification against source data.,TRUE,model
AE013,2,ae_raw,IT.AEENDAT,AE,AEENDY,,custom,derive_study_day,"{""reference_variable"":""RFSTDTC"",""date_format"":""dd/mm/yyyy""}",70,Alternative to derive study day from end date relative to subject reference start date.,"Requires reference start date variable from DM domain; if not available, this mapping is not applicable.",TRUE,model
AE014,1,ae_raw,IT.AESHOSP,AE,AESHOSP,,controlled_term,map_controlled_term,"{""mapping"":{""Yes"":""Y"",""No"":""N""}}",95,Hospitalization seriousness criterion maps directly to SDTM AE AESHOSP with controlled terminology.,,FALSE,model
AE015,1,ae_raw,IT.AEENDAT,AE,AEENDTC,,date_conversion,to_iso8601_date,"{""source_format"":""dd/mm/yyyy""}",90,Adverse event end date maps directly to SDTM AE AEENDTC with ISO 8601 date conversion.,Date format is ambiguous; assumes dd/mm/yyyy based on common clinical practice but needs verification against source data.,TRUE,model
AE015,2,ae_raw,IT.AEENDAT,AE,AEENDY,,custom,derive_study_day,"{""reference_variable"":""RFSTDTC"",""date_format"":""dd/mm/yyyy""}",70,Alternative to derive study day from end date relative to subject reference start date.,"Requires reference start date variable from DM domain; if not available, this mapping is not applicable.",TRUE,model
