[
  {
    "concept_id": "AE_SOURCE_INTEGRATION",
    "categories": "source_integration",
    "classification_score": 1,
    "evidence": "Concept explicitly merges ae_main and sae_detail datasets using STUDY, PATNUM, AEID as join keys.",
    "uncertainties": "",
    "status": "proposed",
    "group_id": "ae_connected_01"
  },
  {
    "concept_id": "AE_CORE",
    "categories": "direct_assignment",
    "classification_score": 0.9,
    "evidence": "Maps STUDYID and USUBJID from STUDY and PATNUM after source integration; no semantic transformation.",
    "uncertainties": "Requires DM_CORE for USUBJID derivation; may need conditional derivation if subject identifier mapping is not direct.",
    "status": "proposed",
    "group_id": "ae_connected_01"
  },
  {
    "concept_id": "AE_TERMS",
    "categories": ["direct_assignment", "controlled_terminology"],
    "classification_score": 0.8,
    "evidence": "AETERM is direct assignment; AEDECOD and AEBODSYS may require controlled terminology mapping to standard dictionaries.",
    "uncertainties": "Mapping to MedDRA not specified; may need external dictionary lookup.",
    "status": "proposed",
    "group_id": "ae_connected_01"
  },
  {
    "concept_id": "AE_SAFETY",
    "categories": "controlled_terminology",
    "classification_score": 0.9,
    "evidence": "AESEV, AESER, AESHOSP need mapping to controlled terminology (e.g., MILD/MODERATE/SEVERE, Y/N).",
    "uncertainties": "Source values for AESEV and AESER not specified; may require conditional derivation if mapping is not direct.",
    "status": "proposed",
    "group_id": "ae_connected_01"
  },
  {
    "concept_id": "AE_REL_OUTCOME",
    "categories": "controlled_terminology",
    "classification_score": 0.9,
    "evidence": "AEREL and AEOUTCOME need mapping to standard controlled terminology (e.g., AEOUT to RECOVERED/RESOLVED etc.).",
    "uncertainties": "Source values for AEREL and AEOUTCOME not specified; may require conditional derivation.",
    "status": "proposed",
    "group_id": "ae_connected_01"
  },
  {
    "concept_id": "AE_START",
    "categories": ["date_time_conversion", "temporal_derivation"],
    "classification_score": 0.9,
    "evidence": "AESTDAT and AESTTIM need conversion to ISO 8601; AESTDY derived from reference start date.",
    "uncertainties": "Date format not specified; may need needs_information if ambiguous.",
    "status": "proposed",
    "group_id": "ae_connected_01"
  },
  {
    "concept_id": "AE_END",
    "categories": ["date_time_conversion", "conditional_derivation", "temporal_derivation"],
    "classification_score": 0.9,
    "evidence": "AEENDDAT and AEENDTIM need conversion; AEONGO indicates ongoing, requiring conditional derivation for AEENRF and possibly AEENDTC.",
    "uncertainties": "Date format not specified; ongoing handling may require conditional logic.",
    "status": "proposed",
    "group_id": "ae_connected_01"
  },
  {
    "concept_id": "AE_SEQUENCE",
    "categories": "temporal_derivation",
    "classification_score": 1,
    "evidence": "AESEQ is a sequence number derived after sorting by subject and start date.",
    "uncertainties": "",
    "status": "proposed",
    "group_id": "ae_connected_01"
  }
]
