[
  {
    "mapping_id": "DM001",
    "candidate_rank": 1,
    "source_dataset": "dm_raw",
    "source_variable": "STUDY",
    "target_domain": "DM",
    "target_variable": "STUDYID",
    "target_value": "",
    "mapping_type": "direct",
    "transform_id": "direct_map",
    "transform_parameters": "{}",
    "recommendation_score": 1,
    "reason": "The source variable STUDY contains the study identifier 'TRACE001' which directly maps to DM.STUDYID. No transformation is needed.",
    "uncertainties": "",
    "review_required": false,
    "provenance": "model"
  },
  {
    "mapping_id": "DM003",
    "candidate_rank": 1,
    "source_dataset": "dm_raw",
    "source_variable": "STUDY | PATNUM",
    "target_domain": "DM",
    "target_variable": "USUBJID",
    "target_value": "",
    "mapping_type": "combine",
    "transform_id": "derive_usubjid",
    "transform_parameters": "{\"separator\":\"-\"}",
    "recommendation_score": 0.95,
    "reason": "USUBJID is typically constructed by combining STUDYID and subject identifier. Combining STUDY and PATNUM with a '-' separator creates a unique subject identifier across studies.",
    "uncertainties": "Potential double hyphen because PATNUM already contains a hyphen (e.g., '701-1001'), resulting in 'TRACE001-701-1001'. Confirm whether this format is acceptable.",
    "review_required": true,
    "provenance": "model"
  },
  {
    "mapping_id": "DM004",
    "candidate_rank": 1,
    "source_dataset": "dm_raw",
    "source_variable": "PATNUM",
    "target_domain": "DM",
    "target_variable": "SUBJID",
    "target_value": "",
    "mapping_type": "direct",
    "transform_id": "direct_map",
    "transform_parameters": "{}",
    "recommendation_score": 1,
    "reason": "PATNUM represents the subject identifier within the study and can be directly mapped to DM.SUBJID.",
    "uncertainties": "",
    "review_required": false,
    "provenance": "model"
  },
  {
    "mapping_id": "DM005",
    "candidate_rank": 1,
    "source_dataset": "dm_raw",
    "source_variable": "FIRST_DOSE_DT",
    "target_domain": "DM",
    "target_variable": "RFSTDTC",
    "target_value": "",
    "mapping_type": "date_conversion",
    "transform_id": "to_iso8601_date",
    "transform_parameters": "{\"formats\":[\"m/d/y\",\"dd-mmm-yyyy\",\"y-m-d\"]}",
    "recommendation_score": 1,
    "reason": "FIRST_DOSE_DT is the date of first dose and should be converted to ISO 8601 format for RFSTDTC.",
    "uncertainties": "",
    "review_required": false,
    "provenance": "model"
  },
  {
    "mapping_id": "DM006",
    "candidate_rank": 1,
    "source_dataset": "dm_raw",
    "source_variable": "IC_DT",
    "target_domain": "DM",
    "target_variable": "RFICDTC",
    "target_value": "",
    "mapping_type": "date_conversion",
    "transform_id": "to_iso8601_date",
    "transform_parameters": "{\"formats\":[\"m/d/y\",\"dd-mmm-yyyy\",\"y-m-d\"]}",
    "recommendation_score": 1,
    "reason": "IC_DT is the informed consent date and should be converted to ISO 8601 format for RFICDTC.",
    "uncertainties": "",
    "review_required": false,
    "provenance": "model"
  },
  {
    "mapping_id": "DM017",
    "candidate_rank": 1,
    "source_dataset": "dm_raw",
    "source_variable": "PATNUM",
    "target_domain": "DM",
    "target_variable": "SITEID",
    "target_value": "",
    "mapping_type": "custom",
    "transform_id": "custom_transform",
    "transform_parameters": "{\"name\":\"extract_siteid\"}",
    "recommendation_score": 0.9,
    "reason": "SITEID can be derived from PATNUM by extracting the site portion (e.g., '701' from '701-1001'). A custom transformation is appropriate.",
    "uncertainties": "Assumes the first part of PATNUM before the hyphen is the site ID. Verify that this pattern holds for all subjects.",
    "review_required": true,
    "provenance": "model"
  },
  {
    "mapping_id": "DM007",
    "candidate_rank": 1,
    "source_dataset": "dm_raw",
    "source_variable": "IT.AGE",
    "target_domain": "DM",
    "target_variable": "AGE",
    "target_value": "",
    "mapping_type": "direct",
    "transform_id": "direct_map",
    "transform_parameters": "{}",
    "recommendation_score": 1,
    "reason": "IT.AGE is already numeric and represents the subject's age, directly mapping to DM.AGE.",
    "uncertainties": "",
    "review_required": false,
    "provenance": "model"
  },
  {
    "mapping_id": "DM009",
    "candidate_rank": 1,
    "source_dataset": "dm_raw",
    "source_variable": "IT.SEX",
    "target_domain": "DM",
    "target_variable": "SEX",
    "target_value": "",
    "mapping_type": "controlled_term",
    "transform_id": "map_controlled_term",
    "transform_parameters": "{\"terms\":{\"Female\":\"F\",\"Male\":\"M\",\"Unknown\":\"U\"}}",
    "recommendation_score": 1,
    "reason": "IT.SEX values map to standard SDTM sex codes using the provided controlled terminology.",
    "uncertainties": "",
    "review_required": false,
    "provenance": "model"
  },
  {
    "mapping_id": "DM010",
    "candidate_rank": 1,
    "source_dataset": "dm_raw",
    "source_variable": "IT.ETHNIC",
    "target_domain": "DM",
    "target_variable": "ETHNIC",
    "target_value": "",
    "mapping_type": "controlled_term",
    "transform_id": "map_controlled_term",
    "transform_parameters": "{\"terms\":{\"Hispanic or Latino\":\"HISPANIC OR LATINO\",\"Not Hispanic or Latino\":\"NOT HISPANIC OR LATINO\",\"Unknown\":\"UNKNOWN\",\"Not Reported\":\"NOT REPORTED\"}}",
    "recommendation_score": 0.93,
    "reason": "Source ethnicity values are mapped to standard SDTM ETHNIC controlled terminology; mapping covers all observed values and is required for DM domain.",
    "uncertainties": "No uncertainty observed; values in source data align with provided mapping. Verify that no additional ethnicity categories appear in future data.",
    "review_required": false,
    "provenance": "model"
  },
  {
    "mapping_id": "DM011",
    "candidate_rank": 1,
    "source_dataset": "dm_raw",
    "source_variable": "IT.RACE",
    "target_domain": "DM",
    "target_variable": "RACE",
    "target_value": "",
    "mapping_type": "controlled_term",
    "transform_id": "map_controlled_term",
    "transform_parameters": "{\"terms\":{\"White\":\"WHITE\",\"Asian\":\"ASIAN\",\"Black or African American\":\"BLACK OR AFRICAN AMERICAN\",\"American Indian or Alaska Native\":\"AMERICAN INDIAN OR ALASKA NATIVE\",\"Multiple\":\"MULTIPLE\",\"Unknown\":\"UNKNOWN\"}}",
    "recommendation_score": 0.91,
    "reason": "Source race values map to SDTM RACE controlled terminology; mapping covers all observed values and is required for DM domain.",
    "uncertainties": "No uncertainty observed; values in source data align with provided mapping. Verify that no additional race categories appear in future data.",
    "review_required": false,
    "provenance": "model"
  },
  {
    "mapping_id": "DM012",
    "candidate_rank": 1,
    "source_dataset": "dm_raw",
    "source_variable": "COUNTRY",
    "target_domain": "DM",
    "target_variable": "COUNTRY",
    "target_value": "",
    "mapping_type": "direct",
    "transform_id": "direct_map",
    "transform_parameters": "{}",
    "recommendation_score": 0.95,
    "reason": "Source country values (USA, CAN, GBR) are already in ISO 3166-1 alpha-3 format, which is the expected SDTM COUNTRY standard. Direct mapping is appropriate.",
    "uncertainties": "Verify that all source country values are present in the observed data and are valid ISO 3166-1 alpha-3 codes.",
    "review_required": false,
    "provenance": "model"
  },
  {
    "mapping_id": "DM013",
    "candidate_rank": 1,
    "source_dataset": "dm_raw",
    "source_variable": "PLANNED_ARMCD",
    "target_domain": "DM",
    "target_variable": "ARMCD",
    "target_value": "",
    "mapping_type": "direct",
    "transform_id": "direct_map",
    "transform_parameters": "{}",
    "recommendation_score": 0.94,
    "reason": "Planned arm codes (PBO, TRT10) are concise and suitable as SDTM ARMCD values. Direct mapping without transformation is appropriate.",
    "uncertainties": "Confirm that the arm code values align with the study protocol and ARMCD expected format (typically short character codes).",
    "review_required": false,
    "provenance": "model"
  },
  {
    "mapping_id": "DM014",
    "candidate_rank": 1,
    "source_dataset": "dm_raw",
    "source_variable": "PLANNED_ARM",
    "target_domain": "DM",
    "target_variable": "ARM",
    "target_value": "",
    "mapping_type": "direct",
    "transform_id": "direct_map",
    "transform_parameters": "{}",
    "recommendation_score": 0.9,
    "reason": "Planned arm descriptions (Placebo, Trace Drug 10 mg) are appropriate as SDTM ARM values, which allow descriptive text.",
    "uncertainties": "Ensure that the ARM text is consistent with the corresponding ARMCD values and follows sponsor conventions.",
    "review_required": false,
    "provenance": "model"
  },
  {
    "mapping_id": "DM015",
    "candidate_rank": 1,
    "source_dataset": "dm_raw",
    "source_variable": "ACTUAL_ARMCD",
    "target_domain": "DM",
    "target_variable": "ACTARMCD",
    "target_value": "",
    "mapping_type": "direct",
    "transform_id": "direct_map",
    "transform_parameters": "{}",
    "recommendation_score": 0.94,
    "reason": "Actual arm codes (PBO, TRT10) are concise and suitable as SDTM ACTARMCD values. Direct mapping is appropriate.",
    "uncertainties": "Confirm that the arm code values align with the study protocol and ACTARMCD expected format.",
    "review_required": false,
    "provenance": "model"
  },
  {
    "mapping_id": "DM016",
    "candidate_rank": 1,
    "source_dataset": "dm_raw",
    "source_variable": "ACTUAL_ARM",
    "target_domain": "DM",
    "target_variable": "ACTARM",
    "target_value": "",
    "mapping_type": "direct",
    "transform_id": "direct_map",
    "transform_parameters": "{}",
    "recommendation_score": 0.9,
    "reason": "Actual arm descriptions (Placebo, Trace Drug 10 mg) are appropriate as SDTM ACTARM values, which allow descriptive text.",
    "uncertainties": "Ensure that the ACTARM text is consistent with the corresponding ACTARMCD values and follows sponsor conventions.",
    "review_required": false,
    "provenance": "model"
  },
  {
    "mapping_id": "AE001",
    "candidate_rank": 1,
    "source_dataset": "ae_raw",
    "source_variable": "STUDY",
    "target_domain": "AE",
    "target_variable": "STUDYID",
    "target_value": "",
    "mapping_type": "direct",
    "transform_id": "direct_map",
    "transform_parameters": "{}",
    "recommendation_score": 0.95,
    "reason": "Study identifier (TRACE001) maps directly to SDTM STUDYID. This is a standard direct mapping for all domains.",
    "uncertainties": "No uncertainty observed. Confirm that the STUDY value is consistent across all records and matches the trial identifier.",
    "review_required": false,
    "provenance": "model"
  },
  {
    "mapping_id": "AE003",
    "candidate_rank": 1,
    "source_dataset": "ae_raw",
    "source_variable": "STUDY | PATNUM",
    "target_domain": "AE",
    "target_variable": "USUBJID",
    "target_value": "",
    "mapping_type": "combine",
    "transform_id": "derive_usubjid",
    "transform_parameters": "{\"separator\":\"-\"}",
    "recommendation_score": 95,
    "reason": "USUBJID由STUDY和PATNUM组合而成，PATNUM可能已包含站点和受试者编号，组合后形成唯一受试者标识。",
    "uncertainties": "需确认PATNUM格式是否始终为站点-受试者，以及组合后是否与DM.USUBJID一致。",
    "review_required": true,
    "provenance": "model"
  },
  {
    "mapping_id": "AE005",
    "candidate_rank": 1,
    "source_dataset": "ae_raw",
    "source_variable": "IT.AETERM",
    "target_domain": "AE",
    "target_variable": "AETERM",
    "target_value": "",
    "mapping_type": "direct",
    "transform_id": "direct_map",
    "transform_parameters": "{}",
    "recommendation_score": 99,
    "reason": "直接映射原始AE术语到AETERM。",
    "uncertainties": "无。",
    "review_required": false,
    "provenance": "model"
  },
  {
    "mapping_id": "AE006",
    "candidate_rank": 1,
    "source_dataset": "ae_raw",
    "source_variable": "AEDECOD",
    "target_domain": "AE",
    "target_variable": "AEDECOD",
    "target_value": "",
    "mapping_type": "direct",
    "transform_id": "direct_map",
    "transform_parameters": "{}",
    "recommendation_score": 98,
    "reason": "AEDECOD是已编码的术语，直接映射。",
    "uncertainties": "无。",
    "review_required": false,
    "provenance": "model"
  },
  {
    "mapping_id": "AE007",
    "candidate_rank": 1,
    "source_dataset": "ae_raw",
    "source_variable": "AEBODSYS",
    "target_domain": "AE",
    "target_variable": "AEBODSYS",
    "target_value": "",
    "mapping_type": "custom",
    "transform_id": "custom_transform",
    "transform_parameters": "{\"name\":\"uppercase\"}",
    "recommendation_score": 90,
    "reason": "AEBODSYS需要大写，SDTM中系统器官分类通常大写。",
    "uncertainties": "源值可能已经是标准大小写，但大写是安全的。",
    "review_required": false,
    "provenance": "model"
  },
  {
    "mapping_id": "AE008",
    "candidate_rank": 1,
    "source_dataset": "ae_raw",
    "source_variable": "IT.AESEV",
    "target_domain": "AE",
    "target_variable": "AESEV",
    "target_value": "",
    "mapping_type": "controlled_term",
    "transform_id": "map_controlled_term",
    "transform_parameters": "{\"terms\":{\"Mild Adverse Event\":\"MILD\",\"Moderate Adverse Event\":\"MODERATE\",\"Severe Adverse Event\":\"SEVERE\"}}",
    "recommendation_score": 100,
    "reason": "按标准受控术语映射。",
    "uncertainties": "确认SDTM允许值。",
    "review_required": false,
    "provenance": "model"
  },
  {
    "mapping_id": "AE009",
    "candidate_rank": 1,
    "source_dataset": "ae_raw",
    "source_variable": "IT.AESER",
    "target_domain": "AE",
    "target_variable": "AESER",
    "target_value": "",
    "mapping_type": "controlled_term",
    "transform_id": "map_controlled_term",
    "transform_parameters": "{\"terms\":{\"Yes\":\"Y\",\"No\":\"N\"}}",
    "recommendation_score": 100,
    "reason": "AESER标准值为Y/N。",
    "uncertainties": "无。",
    "review_required": false,
    "provenance": "model"
  },
  {
    "mapping_id": "AE010",
    "candidate_rank": 1,
    "source_dataset": "ae_raw",
    "source_variable": "IT.AEREL",
    "target_domain": "AE",
    "target_variable": "AEREL",
    "target_value": "",
    "mapping_type": "controlled_term",
    "transform_id": "map_controlled_term",
    "transform_parameters": "{\"terms\":{\"Probably Related\":\"PROBABLE\",\"Possibly Related\":\"POSSIBLE\",\"Unlikely Related\":\"UNLIKELY\",\"Not Related\":\"NOT RELATED\"}}",
    "recommendation_score": 95,
    "reason": "映射到AEREL标准术语。",
    "uncertainties": "SDTM AEREL允许值可能还需确认，通常也包括'RELATED'，但这里源值无。",
    "review_required": true,
    "provenance": "model"
  },
  {
    "mapping_id": "AE011",
    "candidate_rank": 1,
    "source_dataset": "ae_raw",
    "source_variable": "AEOUTCOME",
    "target_domain": "AE",
    "target_variable": "AEOUT",
    "target_value": "",
    "mapping_type": "controlled_term",
    "transform_id": "map_controlled_term",
    "transform_parameters": "{\"terms\":{\"Recovered/Resolved\":\"RECOVERED/RESOLVED\",\"Recovering/Resolving\":\"RECOVERING/RESOLVING\",\"Not Recovered/not Resolved\":\"NOT RECOVERED/NOT RESOLVED\",\"Fatal\":\"FATAL\",\"Unknown\":\"UNKNOWN\"}}",
    "recommendation_score": 95,
    "reason": "映射到AEOUT标准值。",
    "uncertainties": "源数据中未出现Fatal和Unknown，但映射字典包含以防将来出现。",
    "review_required": false,
    "provenance": "model"
  },
  {
    "mapping_id": "AE012",
    "candidate_rank": 1,
    "source_dataset": "ae_raw",
    "source_variable": "IT.AESTDAT",
    "target_domain": "AE",
    "target_variable": "AESTDTC",
    "target_value": "",
    "mapping_type": "date_conversion",
    "transform_id": "to_iso8601_date",
    "transform_parameters": "{\"formats\":[\"m/d/y\",\"dd-mmm-yyyy\",\"y-m-d\"]}",
    "recommendation_score": 0.95,
    "reason": "Source is adverse event start date in character format; AESTDTC is ISO 8601 date. Transform handles known date formats. No missing values observed.",
    "uncertainties": "Potential ambiguous date formatting if day and month order varies.",
    "review_required": false,
    "provenance": "model"
  },
  {
    "mapping_id": "AE013",
    "candidate_rank": 1,
    "source_dataset": "ae_raw",
    "source_variable": "IT.AEENDAT",
    "target_domain": "AE",
    "target_variable": "AEENDTC",
    "target_value": "",
    "mapping_type": "date_conversion",
    "transform_id": "to_iso8601_date",
    "transform_parameters": "{\"formats\":[\"m/d/y\",\"dd-mmm-yyyy\",\"y-m-d\"]}",
    "recommendation_score": 0.95,
    "reason": "Source is adverse event end date in character format; AEENDTC is ISO 8601 date. Transform handles known date formats. Missing rate 0.25, resulting in null for missing dates, which is acceptable.",
    "uncertainties": "Potential ambiguous date formatting if day and month order varies; missing dates are left null.",
    "review_required": false,
    "provenance": "model"
  },
  {
    "mapping_id": "AE014",
    "candidate_rank": 1,
    "source_dataset": "ae_raw",
    "source_variable": "IT.AESHOSP",
    "target_domain": "AE",
    "target_variable": "AESHOSP",
    "target_value": "",
    "mapping_type": "controlled_term",
    "transform_id": "map_controlled_term",
    "transform_parameters": "{\"terms\":{\"Yes\":\"Y\",\"No\":\"N\"}}",
    "recommendation_score": 0.98,
    "reason": "Source is Yes/No hospitalization criterion; AESHOSP is expected to be Y/N. Mapping directly via controlled terms.",
    "uncertainties": "No uncertainties; values are clearly Yes/No.",
    "review_required": false,
    "provenance": "model"
  },
  {
    "mapping_id": "AE015",
    "candidate_rank": 1,
    "source_dataset": "ae_raw",
    "source_variable": "IT.AEENDAT",
    "target_domain": "AE",
    "target_variable": "AEENRF",
    "target_value": "",
    "mapping_type": "custom",
    "transform_id": "custom_transform",
    "transform_parameters": "{\"name\":\"ongoing_if_missing\"}",
    "recommendation_score": 0.7,
    "reason": "AEENRF indicates end relative to reference period; deriving 'ONGOING' from missing end date is plausible. However, the exact codelist for AEENRF must be verified.",
    "uncertainties": "The value 'ONGOING' may not match the standard AEENRF codelist; needs confirmation with SDTM implementation guide.",
    "review_required": true,
    "provenance": "model"
  },
  {
    "mapping_id": "VS001",
    "candidate_rank": 1,
    "source_dataset": "vs_raw",
    "source_variable": "STUDY",
    "target_domain": "VS",
    "target_variable": "STUDYID",
    "target_value": "",
    "mapping_type": "direct",
    "transform_id": "direct_map",
    "transform_parameters": "{}",
    "recommendation_score": 0.95,
    "reason": "Study identifier is constant 'TRACE001' for the dataset; direct mapping to STUDYID is straightforward.",
    "uncertainties": "None.",
    "review_required": false,
    "provenance": "model"
  },
  {
    "mapping_id": "VS003",
    "candidate_rank": 1,
    "source_dataset": "vs_raw",
    "source_variable": "STUDY | PATNUM",
    "target_domain": "VS",
    "target_variable": "USUBJID",
    "target_value": "",
    "mapping_type": "combine",
    "transform_id": "derive_usubjid",
    "transform_parameters": "{\"separator\":\"-\"}",
    "recommendation_score": 0.9,
    "reason": "USUBJID is typically constructed by combining study and subject identifiers. PATNUM includes site and subject, so combining with STUDY provides unique USUBJID.",
    "uncertainties": "Ensure PATNUM format is consistent; separator '-' might produce double hyphens if PATNUM already contains a hyphen.",
    "review_required": false,
    "provenance": "model"
  },
  {
    "mapping_id": "VS005",
    "candidate_rank": 1,
    "source_dataset": "vs_raw",
    "source_variable": "VTLD",
    "target_domain": "VS",
    "target_variable": "VSDTC",
    "target_value": "",
    "mapping_type": "date_conversion",
    "transform_id": "to_iso8601_date",
    "transform_parameters": "{\"formats\":[\"dd-mmm-yyyy\",\"m/d/y\",\"y-m-d\"]}",
    "recommendation_score": 0.95,
    "reason": "Source is visit date in character format; VSDTC is ISO 8601 date. Transform handles the observed date format 'dd-mmm-yyyy'.",
    "uncertainties": "Potential ambiguous date formatting if other formats appear.",
    "review_required": false,
    "provenance": "model"
  },
  {
    "mapping_id": "VS006",
    "candidate_rank": 1,
    "source_dataset": "vs_raw",
    "source_variable": "SUBPOS",
    "target_domain": "VS",
    "target_variable": "VSPOS",
    "target_value": "",
    "mapping_type": "custom",
    "transform_id": "custom_transform",
    "transform_parameters": "{\"name\":\"uppercase\"}",
    "recommendation_score": 0.95,
    "reason": "Source body position values are already uppercase; uppercasing ensures consistency and matches VSPOS expected format.",
    "uncertainties": "No uncertainties; values are already uppercase.",
    "review_required": false,
    "provenance": "model"
  },
  {
    "mapping_id": "VS007",
    "candidate_rank": 1,
    "source_dataset": "vs_raw",
    "source_variable": "INSTANCE",
    "target_domain": "VS",
    "target_variable": "VISIT",
    "target_value": "",
    "mapping_type": "direct",
    "transform_id": "direct_map",
    "transform_parameters": "{}",
    "recommendation_score": 95,
    "reason": "INSTANCE 为访问名称（如 Screening 1、Week 2），直接映射为 SDTM VS.VISIT，符合标准要求。",
    "uncertainties": "访问名称需与标准访问计划核对，确保完全一致。",
    "review_required": false,
    "provenance": "model"
  },
  {
    "mapping_id": "VS008",
    "candidate_rank": 1,
    "source_dataset": "vs_raw",
    "source_variable": "INSTANCE",
    "target_domain": "VS",
    "target_variable": "VISITNUM",
    "target_value": "",
    "mapping_type": "custom",
    "transform_id": "derive_visitnum",
    "transform_parameters": "{\"terms\":{\"Screening 1\":-1,\"Week 2\":2}}",
    "recommendation_score": 90,
    "reason": "根据访问名称到数值的映射表派生 VISITNUM，覆盖所有唯一访问名称。",
    "uncertainties": "筛选期编号 -1 是否符合研究团队定义，需人工确认。",
    "review_required": true,
    "provenance": "model"
  },
  {
    "mapping_id": "VS101",
    "candidate_rank": 1,
    "source_dataset": "vs_raw",
    "source_variable": "IT.HEIGHT_VSORRES",
    "target_domain": "VS",
    "target_variable": "VSTESTCD",
    "target_value": "HEIGHT",
    "mapping_type": "transpose",
    "transform_id": "transpose_findings",
    "transform_parameters": "{}",
    "recommendation_score": 92,
    "reason": "身高测量结果转置为 VSTESTCD=HEIGHT，标准测试代码，符合 SDTM VS 模型。",
    "uncertainties": "缺失率 50%，需确认方案是否如此；身高单位未提供，需补充映射（如 cm）。",
    "review_required": false,
    "provenance": "model"
  },
  {
    "mapping_id": "VS102",
    "candidate_rank": 1,
    "source_dataset": "vs_raw",
    "source_variable": "IT.WEIGHT",
    "target_domain": "VS",
    "target_variable": "VSTESTCD",
    "target_value": "WEIGHT",
    "mapping_type": "transpose",
    "transform_id": "transpose_findings",
    "transform_parameters": "{}",
    "recommendation_score": 92,
    "reason": "体重测量结果转置为 VSTESTCD=WEIGHT，标准测试代码，符合 SDTM VS 模型。",
    "uncertainties": "缺失率 50%，需确认方案是否如此；体重单位未提供，需补充映射（如 kg）。",
    "review_required": false,
    "provenance": "model"
  },
  {
    "mapping_id": "VS103",
    "candidate_rank": 1,
    "source_dataset": "vs_raw",
    "source_variable": "IT.TEMP",
    "target_domain": "VS",
    "target_variable": "VSTESTCD",
    "target_value": "TEMP",
    "mapping_type": "transpose",
    "transform_id": "transpose_findings",
    "transform_parameters": "{}",
    "recommendation_score": 93,
    "reason": "体温测量结果转置为 VSTESTCD=TEMP，且源数据包含位置 ORAL，映射合理。",
    "uncertainties": "温度单位需确认（通常为 Celsius），源数据未直接指定。",
    "review_required": false,
    "provenance": "model"
  },
  {
    "mapping_id": "VS104",
    "candidate_rank": 1,
    "source_dataset": "vs_raw",
    "source_variable": "SYS_BP",
    "target_domain": "VS",
    "target_variable": "VSTESTCD",
    "target_value": "SYSBP",
    "mapping_type": "transpose",
    "transform_id": "transpose_findings",
    "transform_parameters": "{}",
    "recommendation_score": 95,
    "reason": "收缩压测量转置为 VSTESTCD=SYSBP，标准代码，且缺失率为 0，数据完整。",
    "uncertainties": "体位（SUBPOS）需关联以确保测量条件清楚。",
    "review_required": false,
    "provenance": "model"
  },
  {
    "mapping_id": "VS105",
    "candidate_rank": 1,
    "source_dataset": "vs_raw",
    "source_variable": "DIA_BP",
    "target_domain": "VS",
    "target_variable": "VSTESTCD",
    "target_value": "DIABP",
    "mapping_type": "transpose",
    "transform_id": "transpose_findings",
    "transform_parameters": "{}",
    "recommendation_score": 95,
    "reason": "舒张压测量转置为 VSTESTCD=DIABP，标准代码，且缺失率为 0，数据完整。",
    "uncertainties": "体位（SUBPOS）需关联以确保测量条件清楚。",
    "review_required": false,
    "provenance": "model"
  },
  {
    "mapping_id": "VS106",
    "candidate_rank": 1,
    "source_dataset": "vs_raw",
    "source_variable": "PULSE",
    "target_domain": "VS",
    "target_variable": "VSTESTCD",
    "target_value": "PULSE",
    "mapping_type": "transpose",
    "transform_id": "transpose_findings",
    "transform_parameters": "{}",
    "recommendation_score": 95,
    "reason": "脉搏测量转置为 VSTESTCD=PULSE，标准代码，且缺失率为 0，数据完整。",
    "uncertainties": "体位（SUBPOS）可能影响脉搏，需在后续映射中处理。",
    "review_required": false,
    "provenance": "model"
  }
]
