schema_version: '0.4'
benchmark: {name: TraceSDTM v0.4 intermediate atomic gold, version: 2.0.0, status: frozen, task_count: 49}
plans:
  DM_STUDY_IDENTIFIER: [{transform_id: assign_no_ct, source_ref_ids: [dm_intermediate__STUDY], target_variables: [STUDYID], parameters: {}}]
  DM_DOMAIN_CONSTANT: [{transform_id: hardcode_no_ct, source_ref_ids: [], target_variables: [DOMAIN], parameters: {value: DM}}]
  DM_UNIQUE_SUBJECT_IDENTIFIER: [{transform_id: derive_usubjid, source_ref_ids: [dm_intermediate__STUDY, dm_intermediate__PATNUM], target_variables: [USUBJID], parameters: {separator: '-'}}]
  DM_SUBJECT_IDENTIFIER: [{transform_id: assign_no_ct, source_ref_ids: [dm_intermediate__PATNUM], target_variables: [SUBJID], parameters: {}}]
  DM_SITE_IDENTIFIER: [{transform_id: extract_delimited_part, source_ref_ids: [dm_intermediate__PATNUM], target_variables: [SITEID], parameters: {separator: '-', position: 1}}]
  DM_REFERENCE_START: [{transform_id: to_iso8601_datetime, source_ref_ids: [dm_intermediate__FIRST_DOSE_DATE, dm_intermediate__FIRST_DOSE_TIME], target_variables: [RFSTDTC], parameters: {formats: [dd-mmm-yyyy, 'H:M:S']}}]
  DM_CONSENT: [{transform_id: to_iso8601_date, source_ref_ids: [dm_intermediate__IC_DATE], target_variables: [RFICDTC], parameters: {formats: [dd-mmm-yyyy]}}]
  DM_AGE: [{transform_id: assign_no_ct, source_ref_ids: [dm_intermediate__AGE], target_variables: [AGE], parameters: {}}]
  DM_AGE_UNIT: [{transform_id: hardcode_ct, source_ref_ids: [], target_variables: [AGEU], parameters: {value: YEARS, codelist_id: AGEU}}]
  DM_SEX: [{transform_id: assign_ct, source_ref_ids: [dm_intermediate__SEX], target_variables: [SEX], parameters: {codelist_id: SEX}}]
  DM_ETHNICITY: [{transform_id: assign_ct, source_ref_ids: [dm_intermediate__ETHNIC], target_variables: [ETHNIC], parameters: {codelist_id: ETHNIC}}]
  DM_RACE: [{transform_id: assign_ct, source_ref_ids: [dm_intermediate__RACE], target_variables: [RACE], parameters: {codelist_id: RACE}}]
  DM_COUNTRY: [{transform_id: assign_no_ct, source_ref_ids: [dm_intermediate__COUNTRY], target_variables: [COUNTRY], parameters: {}}]
  DM_PLANNED_ARM_CODE: [{transform_id: assign_no_ct, source_ref_ids: [dm_intermediate__PLANNED_ARMCD], target_variables: [ARMCD], parameters: {}}]
  DM_PLANNED_ARM: [{transform_id: assign_no_ct, source_ref_ids: [dm_intermediate__PLANNED_ARM], target_variables: [ARM], parameters: {}}]
  DM_ACTUAL_ARM_CODE: [{transform_id: assign_no_ct, source_ref_ids: [dm_intermediate__ACTUAL_ARMCD], target_variables: [ACTARMCD], parameters: {}}]
  DM_ACTUAL_ARM: [{transform_id: assign_no_ct, source_ref_ids: [dm_intermediate__ACTUAL_ARM], target_variables: [ACTARM], parameters: {}}]
  AE_STUDY_IDENTIFIER: [{transform_id: assign_no_ct, source_ref_ids: [ae_intermediate__STUDY], target_variables: [STUDYID], parameters: {}}]
  AE_DOMAIN_CONSTANT: [{transform_id: hardcode_no_ct, source_ref_ids: [], target_variables: [DOMAIN], parameters: {value: AE}}]
  AE_UNIQUE_SUBJECT_IDENTIFIER: [{transform_id: derive_usubjid, source_ref_ids: [ae_intermediate__STUDY, ae_intermediate__PATNUM], target_variables: [USUBJID], parameters: {separator: '-'}}]
  AE_REPORTED_TERM: [{transform_id: assign_no_ct, source_ref_ids: [ae_intermediate__AETERM], target_variables: [AETERM], parameters: {}}]
  AE_CODED_TERM: [{transform_id: assign_no_ct, source_ref_ids: [ae_intermediate__AEDECOD], target_variables: [AEDECOD], parameters: {}}]
  AE_BODY_SYSTEM: [{transform_id: normalize_case, source_ref_ids: [ae_intermediate__AEBODSYS], target_variables: [AEBODSYS], parameters: {case: upper}}]
  AE_SEVERITY: [{transform_id: assign_ct, source_ref_ids: [ae_intermediate__AESEV], target_variables: [AESEV], parameters: {codelist_id: AESEV}}]
  AE_SERIOUS: [{transform_id: assign_ct, source_ref_ids: [ae_intermediate__AESER], target_variables: [AESER], parameters: {codelist_id: NY}}]
  AE_HOSPITALIZATION: [{transform_id: assign_ct, source_ref_ids: [ae_intermediate__AESHOSP], target_variables: [AESHOSP], parameters: {codelist_id: NY}}]
  AE_RELATIONSHIP: [{transform_id: assign_ct, source_ref_ids: [ae_intermediate__AEREL], target_variables: [AEREL], parameters: {codelist_id: AEREL}}]
  AE_OUTCOME: [{transform_id: assign_ct, source_ref_ids: [ae_intermediate__AEOUTCOME], target_variables: [AEOUT], parameters: {codelist_id: AEOUT}}]
  AE_START_DATETIME: [{transform_id: to_iso8601_datetime, source_ref_ids: [ae_intermediate__AESTDAT, ae_intermediate__AESTTIM], target_variables: [AESTDTC], parameters: {formats: [dd-mmm-yyyy, 'H:M:S']}}]
  AE_START_STUDY_DAY: [{transform_id: derive_study_day, source_ref_ids: [], target_variables: [AESTDY], parameters: {target_date: AESTDTC, reference_date: RFSTDTC}}]
  AE_END_DATETIME: [{transform_id: to_iso8601_datetime, source_ref_ids: [ae_intermediate__AEENDDAT, ae_intermediate__AEENDTIM], target_variables: [AEENDTC], parameters: {formats: [dd-mmm-yyyy, 'H:M:S']}}]
  AE_ONGOING_STATUS: [{transform_id: derive_ongoing_flag, source_ref_ids: [ae_intermediate__AEENDDAT, ae_intermediate__AEONGO], target_variables: [AEENRF], parameters: {ongoing_value: ONGOING, affirmative_values: ['Yes']}}]
  AE_END_STUDY_DAY: [{transform_id: derive_study_day, source_ref_ids: [], target_variables: [AEENDY], parameters: {target_date: AEENDTC, reference_date: RFSTDTC}}]
  AE_SEQUENCE: [{transform_id: derive_sequence, source_ref_ids: [], target_variables: [AESEQ], parameters: {record_variables: [STUDYID, USUBJID, AESTDTC, AETERM, AEDECOD, .SOURCE_ROW], start_at: 1}}]
  VS_STUDY_IDENTIFIER: [{transform_id: assign_no_ct, source_ref_ids: [vs_intermediate__STUDY], target_variables: [STUDYID], parameters: {}}]
  VS_DOMAIN_CONSTANT: [{transform_id: hardcode_no_ct, source_ref_ids: [], target_variables: [DOMAIN], parameters: {value: VS}}]
  VS_UNIQUE_SUBJECT_IDENTIFIER: [{transform_id: derive_usubjid, source_ref_ids: [vs_intermediate__STUDY, vs_intermediate__PATNUM], target_variables: [USUBJID], parameters: {separator: '-'}}]
  VS_VISIT: [{transform_id: assign_no_ct, source_ref_ids: [vs_intermediate__INSTANCE], target_variables: [VISIT], parameters: {}}]
  VS_VISIT_NUMBER: [{transform_id: derive_visitnum, source_ref_ids: [vs_intermediate__INSTANCE], target_variables: [VISITNUM], parameters: {visit_map_id: trace_visits_v1}}]
  VS_DATETIME: [{transform_id: to_iso8601_datetime, source_ref_ids: [vs_intermediate__VSDAT, vs_intermediate__VSTIM], target_variables: [VSDTC], parameters: {formats: [dd-mmm-yyyy, 'H:M:S']}}]
  VS_POSITION: [{transform_id: assign_ct, source_ref_ids: [vs_intermediate__SUBPOS], target_variables: [VSPOS], parameters: {codelist_id: VSPOS}}]
  VS_HEIGHT_RECORD: [{transform_id: transpose_findings, source_ref_ids: [vs_intermediate__HEIGHT], target_variables: [VSTESTCD, VSTEST, VSORRES, VSORRESU], parameters: {test_code: HEIGHT, test_name: Height, original_unit: cm, unit_source: null}}]
  VS_WEIGHT_RECORD: [{transform_id: transpose_findings, source_ref_ids: [vs_intermediate__WEIGHT], target_variables: [VSTESTCD, VSTEST, VSORRES, VSORRESU], parameters: {test_code: WEIGHT, test_name: Weight, original_unit: kg, unit_source: null}}]
  VS_TEMP_RECORD: [{transform_id: transpose_findings, source_ref_ids: [vs_intermediate__TEMP], target_variables: [VSTESTCD, VSTEST, VSORRES, VSORRESU], parameters: {test_code: TEMP, test_name: Temperature, original_unit: C, unit_source: null}}]
  VS_SYSBP_RECORD: [{transform_id: transpose_findings, source_ref_ids: [vs_intermediate__SYSBP], target_variables: [VSTESTCD, VSTEST, VSORRES, VSORRESU], parameters: {test_code: SYSBP, test_name: Systolic Blood Pressure, original_unit: mmHg, unit_source: null}}]
  VS_DIABP_RECORD: [{transform_id: transpose_findings, source_ref_ids: [vs_intermediate__DIABP], target_variables: [VSTESTCD, VSTEST, VSORRES, VSORRESU], parameters: {test_code: DIABP, test_name: Diastolic Blood Pressure, original_unit: mmHg, unit_source: null}}]
  VS_PULSE_RECORD: [{transform_id: transpose_findings, source_ref_ids: [vs_intermediate__PULSE], target_variables: [VSTESTCD, VSTEST, VSORRES, VSORRESU], parameters: {test_code: PULSE, test_name: Pulse Rate, original_unit: beats/min, unit_source: null}}]
  VS_SEQUENCE: [{transform_id: derive_sequence, source_ref_ids: [], target_variables: [VSSEQ], parameters: {record_variables: [STUDYID, USUBJID, VSDTC, VSTESTCD, VSPOS, VISITNUM, .SOURCE_ROW], start_at: 1}}]
  VS_STUDY_DAY: [{transform_id: derive_study_day, source_ref_ids: [], target_variables: [VSDY], parameters: {target_date: VSDTC, reference_date: RFSTDTC}}]
