[
  {
    "mapping_id": "DM001",
    "candidate_rank": 1,
    "source_dataset": "dm_raw",
    "source_variable": "STUDY",
    "target_domain": "DM",
    "target_variable": "STUDYID",
    "target_value": null,
    "mapping_type": "direct",
    "transform_id": "direct_map",
    "transform_parameters": "{}",
    "recommendation_score": 1,
    "reason": "STUDY 直接映射为 SDTM DM 中的 STUDYID，无转换。",
    "uncertainties": "无",
    "review_required": false,
    "provenance": "model"
  },
  {
    "mapping_id": "DM003",
    "candidate_rank": 1,
    "source_dataset": "dm_raw",
    "source_variable": "STUDY | PATNUM",
    "target_domain": "DM",
    "target_variable": "USUBJID",
    "target_value": null,
    "mapping_type": "combine",
    "transform_id": "combine_fields",
    "transform_parameters": "{\"fields\":[\"STUDY\",\"PATNUM\"],\"separator\":\"-\"}",
    "recommendation_score": 0.95,
    "reason": "USUBJID 通常由 STUDYID 和 Subject Identifier 组合而成，此处将 STUDY 与 PATNUM 拼接形成唯一标识。",
    "uncertainties": "PATNUM 可能已包含站点信息，拼接方式需确认；USUBJID 标准格式可能要求 STUDY-SITE-SUBJECT，但无 SITEID 字段，故直接拼接。",
    "review_required": true,
    "provenance": "model"
  },
  {
    "mapping_id": "DM004",
    "candidate_rank": 1,
    "source_dataset": "dm_raw",
    "source_variable": "PATNUM",
    "target_domain": "DM",
    "target_variable": "SUBJID",
    "target_value": null,
    "mapping_type": "direct",
    "transform_id": "direct_map",
    "transform_parameters": "{}",
    "recommendation_score": 0.9,
    "reason": "PATNUM 为受试者编号，映射为 DM.SUBJID。",
    "uncertainties": "若 PATNUM 为完整 USUBJID，则需映射到 USUBJID；但考虑到 DM003 已用 PATNUM 拼接 USUBJID，此处更适合作为 SUBJID。",
    "review_required": false,
    "provenance": "model"
  },
  {
    "mapping_id": "DM005",
    "candidate_rank": 1,
    "source_dataset": "dm_raw",
    "source_variable": "FIRST_DOSE_DT",
    "target_domain": "DM",
    "target_variable": "RFSTDTC",
    "target_value": null,
    "mapping_type": "date_conversion",
    "transform_id": "to_iso8601_date",
    "transform_parameters": "{\"input_format\":\"MM/DD/YYYY\"}",
    "recommendation_score": 1,
    "reason": "首次给药日期转换为 ISO 8601 格式，作为参考开始日期 RFSTDTC。",
    "uncertainties": "日期格式假设为 MM/DD/YYYY，需确认。",
    "review_required": false,
    "provenance": "model"
  },
  {
    "mapping_id": "DM006",
    "candidate_rank": 1,
    "source_dataset": "dm_raw",
    "source_variable": "IC_DT",
    "target_domain": "DM",
    "target_variable": "RFICDTC",
    "target_value": null,
    "mapping_type": "date_conversion",
    "transform_id": "to_iso8601_date",
    "transform_parameters": "{\"source_format\":\"MM/DD/YYYY\"}",
    "recommendation_score": 0.98,
    "reason": "Informed consent date maps to DM.RFICDTC; convert to ISO 8601.",
    "uncertainties": "None; date format observed as MM/DD/YYYY.",
    "review_required": false,
    "provenance": "model"
  },
  {
    "mapping_id": "DM017",
    "candidate_rank": 1,
    "source_dataset": "dm_raw",
    "source_variable": "PATNUM",
    "target_domain": "DM",
    "target_variable": "USUBJID",
    "target_value": null,
    "mapping_type": "custom",
    "transform_id": "derive_usubjid",
    "transform_parameters": "{\"subject_identifier\":\"PATNUM\",\"study_variable\":\"STUDY\"}",
    "recommendation_score": 0.9,
    "reason": "PATNUM appears to contain site-subject combination; derive USUBJID using STUDY and PATNUM pattern.",
    "uncertainties": "USUBJID format not fully specified; PATNUM may already be unique but lacks STUDYID.",
    "review_required": true,
    "provenance": "model"
  },
  {
    "mapping_id": "DM017",
    "candidate_rank": 2,
    "source_dataset": "dm_raw",
    "source_variable": "PATNUM",
    "target_domain": "DM",
    "target_variable": "USUBJID",
    "target_value": null,
    "mapping_type": "combine",
    "transform_id": "combine_fields",
    "transform_parameters": "{\"fields\":[\"STUDY\",\"PATNUM\"],\"separator\":\"-\"}",
    "recommendation_score": 0.85,
    "reason": "Combine STUDY and PATNUM to form USUBJID.",
    "uncertainties": "Assumes USUBJID = STUDYID-PATNUM.",
    "review_required": true,
    "provenance": "model"
  },
  {
    "mapping_id": "DM017",
    "candidate_rank": 3,
    "source_dataset": "dm_raw",
    "source_variable": "PATNUM",
    "target_domain": "DM",
    "target_variable": "SUBJID",
    "target_value": null,
    "mapping_type": "custom",
    "transform_id": "custom_transform",
    "transform_parameters": "{\"logic\":\"extract substring after last '-' from PATNUM\"}",
    "recommendation_score": 0.6,
    "reason": "PATNUM may embed site ID and subject ID; SUBJID could be the part after hyphen.",
    "uncertainties": "Unclear if SUBJID should exclude site; may require validation.",
    "review_required": true,
    "provenance": "model"
  },
  {
    "mapping_id": "DM007",
    "candidate_rank": 1,
    "source_dataset": "dm_raw",
    "source_variable": "IT.AGE",
    "target_domain": "DM",
    "target_variable": "AGE",
    "target_value": null,
    "mapping_type": "direct",
    "transform_id": "direct_map",
    "transform_parameters": "{}",
    "recommendation_score": 0.99,
    "reason": "Direct mapping of Age to DM.AGE.",
    "uncertainties": "None.",
    "review_required": false,
    "provenance": "model"
  },
  {
    "mapping_id": "DM009",
    "candidate_rank": 1,
    "source_dataset": "dm_raw",
    "source_variable": "IT.SEX",
    "target_domain": "DM",
    "target_variable": "SEX",
    "target_value": null,
    "mapping_type": "controlled_term",
    "transform_id": "map_controlled_term",
    "transform_parameters": "{\"mapping\":{\"Female\":\"F\",\"Male\":\"M\"}}",
    "recommendation_score": 0.98,
    "reason": "Standard SDTM SEX codelist requires mapping to F/M.",
    "uncertainties": "Confirm codelist version permits 'Unknown' if present; observed values are Female/Male.",
    "review_required": false,
    "provenance": "model"
  },
  {
    "mapping_id": "DM010",
    "candidate_rank": 1,
    "source_dataset": "dm_raw",
    "source_variable": "IT.ETHNIC",
    "target_domain": "DM",
    "target_variable": "ETHNIC",
    "target_value": null,
    "mapping_type": "controlled_term",
    "transform_id": "map_controlled_term",
    "transform_parameters": "{}",
    "recommendation_score": 95,
    "reason": "Ethnicity data maps directly to SDTM DM.ETHNIC; source values align with CDISC controlled terminology after case normalization.",
    "uncertainties": "Source value categories may require exact mapping to CDISC code list; verify spelling and case.",
    "review_required": false,
    "provenance": "model"
  },
  {
    "mapping_id": "DM011",
    "candidate_rank": 1,
    "source_dataset": "dm_raw",
    "source_variable": "IT.RACE",
    "target_domain": "DM",
    "target_variable": "RACE",
    "target_value": null,
    "mapping_type": "controlled_term",
    "transform_id": "map_controlled_term",
    "transform_parameters": "{}",
    "recommendation_score": 95,
    "reason": "Race data maps directly to SDTM DM.RACE; source values align with CDISC controlled terminology after case normalization.",
    "uncertainties": "Source value categories may require exact mapping to CDISC code list; verify spelling and case.",
    "review_required": false,
    "provenance": "model"
  },
  {
    "mapping_id": "DM012",
    "candidate_rank": 1,
    "source_dataset": "dm_raw",
    "source_variable": "COUNTRY",
    "target_domain": "DM",
    "target_variable": "COUNTRY",
    "target_value": null,
    "mapping_type": "direct",
    "transform_id": "direct_map",
    "transform_parameters": "{}",
    "recommendation_score": 95,
    "reason": "Country codes (USA, CAN, GBR) conform to ISO 3166-1 alpha-3 standard used by SDTM DM.COUNTRY.",
    "uncertainties": null,
    "review_required": false,
    "provenance": "model"
  },
  {
    "mapping_id": "DM013",
    "candidate_rank": 1,
    "source_dataset": "dm_raw",
    "source_variable": "PLANNED_ARMCD",
    "target_domain": "DM",
    "target_variable": "ARMCD",
    "target_value": null,
    "mapping_type": "direct",
    "transform_id": "direct_map",
    "transform_parameters": "{}",
    "recommendation_score": 90,
    "reason": "Planned treatment arm code maps directly to SDTM DM.ARMCD; source values are already in short code format.",
    "uncertainties": "Verify that PBO and TRT10 are appropriate standardized codes for the study; if not, controlled terminology mapping may be needed.",
    "review_required": false,
    "provenance": "model"
  },
  {
    "mapping_id": "DM014",
    "candidate_rank": 1,
    "source_dataset": "dm_raw",
    "source_variable": "PLANNED_ARM",
    "target_domain": "DM",
    "target_variable": "ARM",
    "target_value": null,
    "mapping_type": "direct",
    "transform_id": "direct_map",
    "transform_parameters": "{}",
    "recommendation_score": 95,
    "reason": "The source variable PLANNED_ARM contains the planned treatment arm description, which directly maps to the SDTM DM.ARM variable.",
    "uncertainties": "The source value 'Trace Drug 10 mg' may not match the sponsor-defined SDTM ARM codelist; verify terminology.",
    "review_required": false,
    "provenance": "model"
  },
  {
    "mapping_id": "DM015",
    "candidate_rank": 1,
    "source_dataset": "dm_raw",
    "source_variable": "ACTUAL_ARMCD",
    "target_domain": "DM",
    "target_variable": "ACTARMCD",
    "target_value": null,
    "mapping_type": "direct",
    "transform_id": "direct_map",
    "transform_parameters": "{}",
    "recommendation_score": 95,
    "reason": "The source variable ACTUAL_ARMCD contains the actual treatment arm code, which directly maps to the SDTM DM.ACTARMCD variable.",
    "uncertainties": null,
    "review_required": false,
    "provenance": "model"
  },
  {
    "mapping_id": "DM016",
    "candidate_rank": 1,
    "source_dataset": "dm_raw",
    "source_variable": "ACTUAL_ARM",
    "target_domain": "DM",
    "target_variable": "ACTARM",
    "target_value": null,
    "mapping_type": "direct",
    "transform_id": "direct_map",
    "transform_parameters": "{}",
    "recommendation_score": 95,
    "reason": "The source variable ACTUAL_ARM contains the actual treatment arm description, which directly maps to the SDTM DM.ACTARM variable.",
    "uncertainties": "The source value 'Trace Drug 10 mg' may not match the sponsor-defined SDTM ACTARM codelist; verify terminology.",
    "review_required": false,
    "provenance": "model"
  },
  {
    "mapping_id": "AE001",
    "candidate_rank": 1,
    "source_dataset": "ae_raw",
    "source_variable": "STUDY",
    "target_domain": "AE",
    "target_variable": "STUDYID",
    "target_value": null,
    "mapping_type": "direct",
    "transform_id": "direct_map",
    "transform_parameters": "{}",
    "recommendation_score": 95,
    "reason": "The source variable STUDY contains the study identifier, which directly maps to the SDTM AE.STUDYID variable.",
    "uncertainties": null,
    "review_required": false,
    "provenance": "model"
  },
  {
    "mapping_id": "AE003",
    "candidate_rank": 1,
    "source_dataset": "ae_raw",
    "source_variable": "STUDY | PATNUM",
    "target_domain": "AE",
    "target_variable": "USUBJID",
    "target_value": null,
    "mapping_type": "combine",
    "transform_id": "combine_fields",
    "transform_parameters": "{\"fields\":[\"STUDY\",\"PATNUM\"],\"separator\":\"-\"}",
    "recommendation_score": 90,
    "reason": "Combine study identifier and subject identifier to create unique subject identifier for AE domain.",
    "uncertainties": "Assumed separator hyphen; may need confirmation from study specs.",
    "review_required": true,
    "provenance": "model"
  },
  {
    "mapping_id": "AE003",
    "candidate_rank": 2,
    "source_dataset": "ae_raw",
    "source_variable": "STUDY | PATNUM",
    "target_domain": "DM",
    "target_variable": "USUBJID",
    "target_value": null,
    "mapping_type": "combine",
    "transform_id": "combine_fields",
    "transform_parameters": "{\"fields\":[\"STUDY\",\"PATNUM\"],\"separator\":\"-\"}",
    "recommendation_score": 80,
    "reason": "Alternative to map combined identifier to DM.USUBJID for subject-level data.",
    "uncertainties": "Same as rank 1 but domain choice differs.",
    "review_required": true,
    "provenance": "model"
  },
  {
    "mapping_id": "AE003",
    "candidate_rank": 3,
    "source_dataset": "ae_raw",
    "source_variable": "STUDY | PATNUM",
    "target_domain": "AE",
    "target_variable": "STUDYID",
    "target_value": null,
    "mapping_type": "direct",
    "transform_id": "direct_map",
    "transform_parameters": "{\"source_variable\":\"STUDY\"}",
    "recommendation_score": 50,
    "reason": "Direct mapping of study identifier, but does not use PATNUM.",
    "uncertainties": "Incomplete use of source variables; likely not intended.",
    "review_required": true,
    "provenance": "model"
  },
  {
    "mapping_id": "AE005",
    "candidate_rank": 1,
    "source_dataset": "ae_raw",
    "source_variable": "IT.AETERM",
    "target_domain": "AE",
    "target_variable": "AETERM",
    "target_value": null,
    "mapping_type": "direct",
    "transform_id": "direct_map",
    "transform_parameters": "{\"source_variable\":\"IT.AETERM\"}",
    "recommendation_score": 95,
    "reason": "Reported adverse event term maps directly to AETERM.",
    "uncertainties": "None.",
    "review_required": false,
    "provenance": "model"
  },
  {
    "mapping_id": "AE006",
    "candidate_rank": 1,
    "source_dataset": "ae_raw",
    "source_variable": "AEDECOD",
    "target_domain": "AE",
    "target_variable": "AEDECOD",
    "target_value": null,
    "mapping_type": "direct",
    "transform_id": "direct_map",
    "transform_parameters": "{\"source_variable\":\"AEDECOD\"}",
    "recommendation_score": 95,
    "reason": "Coded adverse event term maps directly to AEDECOD.",
    "uncertainties": "None.",
    "review_required": false,
    "provenance": "model"
  },
  {
    "mapping_id": "AE007",
    "candidate_rank": 1,
    "source_dataset": "ae_raw",
    "source_variable": "AEBODSYS",
    "target_domain": "AE",
    "target_variable": "AEBODSYS",
    "target_value": null,
    "mapping_type": "direct",
    "transform_id": "direct_map",
    "transform_parameters": "{\"source_variable\":\"AEBODSYS\"}",
    "recommendation_score": 95,
    "reason": "Adverse event body system maps directly to AEBODSYS.",
    "uncertainties": "None.",
    "review_required": false,
    "provenance": "model"
  },
  {
    "mapping_id": "AE008",
    "candidate_rank": 1,
    "source_dataset": "ae_raw",
    "source_variable": "IT.AESEV",
    "target_domain": "AE",
    "target_variable": "AESEV",
    "target_value": null,
    "mapping_type": "controlled_term",
    "transform_id": "map_controlled_term",
    "transform_parameters": "{\"mapping\":{\"Mild Adverse Event\":\"MILD\",\"Moderate Adverse Event\":\"MODERATE\",\"Severe Adverse Event\":\"SEVERE\"}}",
    "recommendation_score": 0.95,
    "reason": "Standard mapping from AE severity variable to SDTM AE.AESEV using controlled terminology.",
    "uncertainties": "Confirm complete list of source values and exact target CDISC terminology for severity.",
    "review_required": true,
    "provenance": "model"
  },
  {
    "mapping_id": "AE009",
    "candidate_rank": 1,
    "source_dataset": "ae_raw",
    "source_variable": "IT.AESER",
    "target_domain": "AE",
    "target_variable": "AESER",
    "target_value": null,
    "mapping_type": "controlled_term",
    "transform_id": "map_controlled_term",
    "transform_parameters": "{\"mapping\":{\"No\":\"N\",\"Yes\":\"Y\"}}",
    "recommendation_score": 0.98,
    "reason": "Serious event indicator maps directly to AE.AESER with standard Y/N values.",
    "uncertainties": "No significant uncertainties; verify source values are only 'No' and 'Yes'.",
    "review_required": false,
    "provenance": "model"
  },
  {
    "mapping_id": "AE010",
    "candidate_rank": 1,
    "source_dataset": "ae_raw",
    "source_variable": "IT.AEREL",
    "target_domain": "AE",
    "target_variable": "AEREL",
    "target_value": null,
    "mapping_type": "controlled_term",
    "transform_id": "map_controlled_term",
    "transform_parameters": "{\"mapping\":{\"Not Related\":\"NOT RELATED\",\"Unlikely Related\":\"UNLIKELY RELATED\",\"Possibly Related\":\"POSSIBLY RELATED\",\"Probably Related\":\"PROBABLY RELATED\"}}",
    "recommendation_score": 0.85,
    "reason": "Causality variable maps to AE.AEREL with standardized relationship terminology.",
    "uncertainties": "CDISC standard codelist for AEREL may vary; confirm exact terms (e.g., whether 'UNLIKELY RELATED' is accepted or should map to 'NOT RELATED').",
    "review_required": true,
    "provenance": "model"
  },
  {
    "mapping_id": "AE011",
    "candidate_rank": 1,
    "source_dataset": "ae_raw",
    "source_variable": "AEOUTCOME",
    "target_domain": "AE",
    "target_variable": "AEOUT",
    "target_value": null,
    "mapping_type": "controlled_term",
    "transform_id": "map_controlled_term",
    "transform_parameters": "{\"mapping\":{\"Recovered/Resolved\":\"RECOVERED/RESOLVED\",\"Not Recovered/not Resolved\":\"NOT RECOVERED/NOT RESOLVED\",\"Recovering/Resolving\":\"RECOVERING/RESOLVING\"}}",
    "recommendation_score": 0.95,
    "reason": "Outcome variable maps directly to AE.AEOUT using standard outcome terminology.",
    "uncertainties": "Confirm all possible outcome values; compare with CDISC codelist for AEOUT.",
    "review_required": true,
    "provenance": "model"
  },
  {
    "mapping_id": "AE012",
    "candidate_rank": 1,
    "source_dataset": "ae_raw",
    "source_variable": "IT.AESTDAT",
    "target_domain": "AE",
    "target_variable": "AESTDTC",
    "target_value": null,
    "mapping_type": "date_conversion",
    "transform_id": "to_iso8601_date",
    "transform_parameters": "{\"source_format\":\"dd/mm/yyyy\"}",
    "recommendation_score": 90,
    "reason": "Adverse event start date maps directly to SDTM AE AESTDTC with ISO 8601 date conversion.",
    "uncertainties": "Date format is ambiguous; assumes dd/mm/yyyy based on common clinical practice but needs verification against source data.",
    "review_required": true,
    "provenance": "model"
  },
  {
    "mapping_id": "AE012",
    "candidate_rank": 2,
    "source_dataset": "ae_raw",
    "source_variable": "IT.AESTDAT",
    "target_domain": "AE",
    "target_variable": "AESTDY",
    "target_value": null,
    "mapping_type": "custom",
    "transform_id": "derive_study_day",
    "transform_parameters": "{\"reference_variable\":\"RFSTDTC\",\"date_format\":\"dd/mm/yyyy\"}",
    "recommendation_score": 70,
    "reason": "Alternative to derive study day from start date relative to subject reference start date.",
    "uncertainties": "Requires reference start date variable from DM domain; if not available, this mapping is not applicable.",
    "review_required": true,
    "provenance": "model"
  },
  {
    "mapping_id": "AE013",
    "candidate_rank": 1,
    "source_dataset": "ae_raw",
    "source_variable": "IT.AEENDAT",
    "target_domain": "AE",
    "target_variable": "AEENDTC",
    "target_value": null,
    "mapping_type": "date_conversion",
    "transform_id": "to_iso8601_date",
    "transform_parameters": "{\"source_format\":\"dd/mm/yyyy\"}",
    "recommendation_score": 90,
    "reason": "Adverse event end date maps directly to SDTM AE AEENDTC with ISO 8601 date conversion.",
    "uncertainties": "Date format is ambiguous; assumes dd/mm/yyyy based on common clinical practice but needs verification against source data.",
    "review_required": true,
    "provenance": "model"
  },
  {
    "mapping_id": "AE013",
    "candidate_rank": 2,
    "source_dataset": "ae_raw",
    "source_variable": "IT.AEENDAT",
    "target_domain": "AE",
    "target_variable": "AEENDY",
    "target_value": null,
    "mapping_type": "custom",
    "transform_id": "derive_study_day",
    "transform_parameters": "{\"reference_variable\":\"RFSTDTC\",\"date_format\":\"dd/mm/yyyy\"}",
    "recommendation_score": 70,
    "reason": "Alternative to derive study day from end date relative to subject reference start date.",
    "uncertainties": "Requires reference start date variable from DM domain; if not available, this mapping is not applicable.",
    "review_required": true,
    "provenance": "model"
  },
  {
    "mapping_id": "AE014",
    "candidate_rank": 1,
    "source_dataset": "ae_raw",
    "source_variable": "IT.AESHOSP",
    "target_domain": "AE",
    "target_variable": "AESHOSP",
    "target_value": null,
    "mapping_type": "controlled_term",
    "transform_id": "map_controlled_term",
    "transform_parameters": "{\"mapping\":{\"Yes\":\"Y\",\"No\":\"N\"}}",
    "recommendation_score": 95,
    "reason": "Hospitalization seriousness criterion maps directly to SDTM AE AESHOSP with controlled terminology.",
    "uncertainties": null,
    "review_required": false,
    "provenance": "model"
  },
  {
    "mapping_id": "AE015",
    "candidate_rank": 1,
    "source_dataset": "ae_raw",
    "source_variable": "IT.AEENDAT",
    "target_domain": "AE",
    "target_variable": "AEENDTC",
    "target_value": null,
    "mapping_type": "date_conversion",
    "transform_id": "to_iso8601_date",
    "transform_parameters": "{\"source_format\":\"dd/mm/yyyy\"}",
    "recommendation_score": 90,
    "reason": "Adverse event end date maps directly to SDTM AE AEENDTC with ISO 8601 date conversion.",
    "uncertainties": "Date format is ambiguous; assumes dd/mm/yyyy based on common clinical practice but needs verification against source data.",
    "review_required": true,
    "provenance": "model"
  },
  {
    "mapping_id": "AE015",
    "candidate_rank": 2,
    "source_dataset": "ae_raw",
    "source_variable": "IT.AEENDAT",
    "target_domain": "AE",
    "target_variable": "AEENDY",
    "target_value": null,
    "mapping_type": "custom",
    "transform_id": "derive_study_day",
    "transform_parameters": "{\"reference_variable\":\"RFSTDTC\",\"date_format\":\"dd/mm/yyyy\"}",
    "recommendation_score": 70,
    "reason": "Alternative to derive study day from end date relative to subject reference start date.",
    "uncertainties": "Requires reference start date variable from DM domain; if not available, this mapping is not applicable.",
    "review_required": true,
    "provenance": "model"
  },
  {
    "mapping_id": "VS001",
    "candidate_rank": 1,
    "source_dataset": "vs_raw",
    "source_variable": "STUDY",
    "target_domain": "VS",
    "target_variable": "STUDYID",
    "target_value": null,
    "mapping_type": "direct",
    "transform_id": "direct_map",
    "transform_parameters": "{}",
    "recommendation_score": 0.95,
    "reason": "STUDY field directly maps to STUDYID in the VS domain, which is required for all SDTM domains.",
    "uncertainties": null,
    "review_required": false,
    "provenance": "model"
  },
  {
    "mapping_id": "VS001",
    "candidate_rank": 2,
    "source_dataset": "vs_raw",
    "source_variable": "STUDY",
    "target_domain": "DM",
    "target_variable": "STUDYID",
    "target_value": null,
    "mapping_type": "direct",
    "transform_id": "direct_map",
    "transform_parameters": "{}",
    "recommendation_score": 0.6,
    "reason": "STUDY could also populate DM.STUDYID if this source is used to derive DM domain, but VS domain is more directly related.",
    "uncertainties": "Whether DM domain is expected from vs_raw is unclear.",
    "review_required": true,
    "provenance": "model"
  },
  {
    "mapping_id": "VS003",
    "candidate_rank": 1,
    "source_dataset": "vs_raw",
    "source_variable": "STUDY | PATNUM",
    "target_domain": "VS",
    "target_variable": "USUBJID",
    "target_value": null,
    "mapping_type": "combine",
    "transform_id": "derive_usubjid",
    "transform_parameters": "{\"study_field\":\"STUDY\",\"patient_field\":\"PATNUM\",\"separator\":\"-\"}",
    "recommendation_score": 0.9,
    "reason": "Combining STUDY and PATNUM with a hyphen yields a globally unique USUBJID in the VS domain.",
    "uncertainties": null,
    "review_required": false,
    "provenance": "model"
  },
  {
    "mapping_id": "VS003",
    "candidate_rank": 2,
    "source_dataset": "vs_raw",
    "source_variable": "STUDY | PATNUM",
    "target_domain": "DM",
    "target_variable": "USUBJID",
    "target_value": null,
    "mapping_type": "combine",
    "transform_id": "derive_usubjid",
    "transform_parameters": "{\"study_field\":\"STUDY\",\"patient_field\":\"PATNUM\",\"separator\":\"-\"}",
    "recommendation_score": 0.7,
    "reason": "The same combined value could be mapped to DM.USUBJID if a DM domain is also built from this source.",
    "uncertainties": "Whether DM domain is generated from vs_raw.",
    "review_required": true,
    "provenance": "model"
  },
  {
    "mapping_id": "VS005",
    "candidate_rank": 1,
    "source_dataset": "vs_raw",
    "source_variable": "VTLD",
    "target_domain": "VS",
    "target_variable": "VSDTC",
    "target_value": null,
    "mapping_type": "date_conversion",
    "transform_id": "to_iso8601_date",
    "transform_parameters": "{\"input_format\":\"DD-Mon-YYYY\"}",
    "recommendation_score": 0.95,
    "reason": "VTLD is the vital signs date; it maps directly to VSDTC after ISO8601 date conversion.",
    "uncertainties": null,
    "review_required": false,
    "provenance": "model"
  },
  {
    "mapping_id": "VS006",
    "candidate_rank": 1,
    "source_dataset": "vs_raw",
    "source_variable": "SUBPOS",
    "target_domain": "VS",
    "target_variable": "VSPOS",
    "target_value": null,
    "mapping_type": "controlled_term",
    "transform_id": "map_controlled_term",
    "transform_parameters": "{\"codelist\":\"Position\"}",
    "recommendation_score": 0.9,
    "reason": "SUBPOS contains body position values (SUPINE, SITTING, STANDING) that map to the controlled terminology for VSPOS.",
    "uncertainties": "Exact codelist name may need verification with the SDTM implementation guide.",
    "review_required": false,
    "provenance": "model"
  },
  {
    "mapping_id": "VS007",
    "candidate_rank": 1,
    "source_dataset": "vs_raw",
    "source_variable": "INSTANCE",
    "target_domain": "VS",
    "target_variable": "VISIT",
    "target_value": null,
    "mapping_type": "direct",
    "transform_id": "direct_map",
    "transform_parameters": "{}",
    "recommendation_score": 9,
    "reason": "INSTANCE contains visit names such as 'Screening 1' and 'Week 2' which map directly to SDTM VS.VISIT.",
    "uncertainties": "None",
    "review_required": false,
    "provenance": "model"
  },
  {
    "mapping_id": "VS007",
    "candidate_rank": 2,
    "source_dataset": "vs_raw",
    "source_variable": "INSTANCE",
    "target_domain": "VS",
    "target_variable": "VISITNUM",
    "target_value": null,
    "mapping_type": "custom",
    "transform_id": "derive_visitnum",
    "transform_parameters": "{}",
    "recommendation_score": 7,
    "reason": "VISITNUM can be derived from the visit name using a standard visit numbering mapping; requires a mapping table.",
    "uncertainties": "Mapping table from visit labels to numbers not provided.",
    "review_required": true,
    "provenance": "model"
  },
  {
    "mapping_id": "VS008",
    "candidate_rank": 1,
    "source_dataset": "vs_raw",
    "source_variable": "INSTANCE",
    "target_domain": "VS",
    "target_variable": "VISITNUM",
    "target_value": null,
    "mapping_type": "custom",
    "transform_id": "derive_visitnum",
    "transform_parameters": "{}",
    "recommendation_score": 8,
    "reason": "VISITNUM derived from INSTANCE visit labels for standard visit numbering; more specific for this mapping instance.",
    "uncertainties": "Mapping table for visit numbers not provided; review needed.",
    "review_required": true,
    "provenance": "model"
  },
  {
    "mapping_id": "VS008",
    "candidate_rank": 2,
    "source_dataset": "vs_raw",
    "source_variable": "INSTANCE",
    "target_domain": "VS",
    "target_variable": "VISIT",
    "target_value": null,
    "mapping_type": "direct",
    "transform_id": "direct_map",
    "transform_parameters": "{}",
    "recommendation_score": 7,
    "reason": "INSTANCE also maps directly to VISIT as an alternative.",
    "uncertainties": "None",
    "review_required": false,
    "provenance": "model"
  },
  {
    "mapping_id": "VS101",
    "candidate_rank": 1,
    "source_dataset": "vs_raw",
    "source_variable": "IT.HEIGHT_VSORRES",
    "target_domain": "VS",
    "target_variable": "VSORRES",
    "target_value": null,
    "mapping_type": "transpose",
    "transform_id": "transpose_findings",
    "transform_parameters": "{\"vstestcd\":\"HEIGHT\"}",
    "recommendation_score": 9,
    "reason": "IT.HEIGHT_VSORRES contains height results that become VSORRES for VS records with VSTESTCD='HEIGHT' after transposing wide data to long format.",
    "uncertainties": "The test code 'HEIGHT' is implied by source variable name; confirm controlled terminology.",
    "review_required": false,
    "provenance": "model"
  },
  {
    "mapping_id": "VS101",
    "candidate_rank": 2,
    "source_dataset": "vs_raw",
    "source_variable": "IT.HEIGHT_VSORRES",
    "target_domain": "VS",
    "target_variable": "VSSTRESN",
    "target_value": null,
    "mapping_type": "transpose",
    "transform_id": "transpose_findings",
    "transform_parameters": "{\"vstestcd\":\"HEIGHT\",\"storage\":\"numeric\"}",
    "recommendation_score": 8,
    "reason": "Height result can also populate VSSTRESN as numeric standardized result; in SDTM both VSORRES and VSSTRESN are typically populated.",
    "uncertainties": "If VSORRES is already populated, VSSTRESN may need conversion/derivation; mapping to both fields might be required.",
    "review_required": false,
    "provenance": "model"
  },
  {
    "mapping_id": "VS102",
    "candidate_rank": 1,
    "source_dataset": "vs_raw",
    "source_variable": "IT.WEIGHT",
    "target_domain": "VS",
    "target_variable": "VSORRES",
    "target_value": null,
    "mapping_type": "transpose",
    "transform_id": "transpose_findings",
    "transform_parameters": "{\"vstestcd\":\"WEIGHT\"}",
    "recommendation_score": 9,
    "reason": "IT.WEIGHT contains weight results that become VSORRES for VS records with VSTESTCD='WEIGHT' after transposing wide data to long format.",
    "uncertainties": "The test code 'WEIGHT' is implied by source variable name; confirm controlled terminology.",
    "review_required": false,
    "provenance": "model"
  },
  {
    "mapping_id": "VS102",
    "candidate_rank": 2,
    "source_dataset": "vs_raw",
    "source_variable": "IT.WEIGHT",
    "target_domain": "VS",
    "target_variable": "VSSTRESN",
    "target_value": null,
    "mapping_type": "transpose",
    "transform_id": "transpose_findings",
    "transform_parameters": "{\"vstestcd\":\"WEIGHT\",\"storage\":\"numeric\"}",
    "recommendation_score": 8,
    "reason": "Weight result can also populate VSSTRESN as numeric standardized result; in SDTM both VSORRES and VSSTRESN are typically populated.",
    "uncertainties": "If VSORRES is already populated, VSSTRESN may need conversion/derivation; mapping to both fields might be required.",
    "review_required": false,
    "provenance": "model"
  },
  {
    "mapping_id": "VS103",
    "candidate_rank": 1,
    "source_dataset": "vs_raw",
    "source_variable": "IT.TEMP",
    "target_domain": "VS",
    "target_variable": "VSSTRESN",
    "target_value": null,
    "mapping_type": "direct",
    "transform_id": "direct_map",
    "transform_parameters": "{}",
    "recommendation_score": 0.95,
    "reason": "Numeric temperature values are stored directly as the standardized numeric result in VSSTRESN.",
    "uncertainties": "Unit (e.g., °C) is not captured by this mapping; VSTESTCD and VSTEST must be populated via constant mapping.",
    "review_required": false,
    "provenance": "model"
  },
  {
    "mapping_id": "VS103",
    "candidate_rank": 2,
    "source_dataset": "vs_raw",
    "source_variable": "IT.TEMP",
    "target_domain": "VS",
    "target_variable": "VSORRES",
    "target_value": null,
    "mapping_type": "direct",
    "transform_id": "direct_map",
    "transform_parameters": "{}",
    "recommendation_score": 0.85,
    "reason": "The original temperature result must be retained as a character value in VSORRES for source data representation.",
    "uncertainties": "Source value may need conversion to character; unit and test code are not included.",
    "review_required": false,
    "provenance": "model"
  },
  {
    "mapping_id": "VS103",
    "candidate_rank": 3,
    "source_dataset": "vs_raw",
    "source_variable": "IT.TEMP",
    "target_domain": "VS",
    "target_variable": "VSSTRESC",
    "target_value": null,
    "mapping_type": "direct",
    "transform_id": "direct_map",
    "transform_parameters": "{}",
    "recommendation_score": 0.5,
    "reason": "If a character-standardized result is needed, VSSTRESC can hold the temperature value, but it is redundant for numeric data.",
    "uncertainties": "Typically VSSTRESC is not required for numeric findings; may represent formatting inconsistencies.",
    "review_required": true,
    "provenance": "model"
  },
  {
    "mapping_id": "VS104",
    "candidate_rank": 1,
    "source_dataset": "vs_raw",
    "source_variable": "SYS_BP",
    "target_domain": "VS",
    "target_variable": "VSSTRESN",
    "target_value": null,
    "mapping_type": "direct",
    "transform_id": "direct_map",
    "transform_parameters": "{}",
    "recommendation_score": 0.95,
    "reason": "Systolic blood pressure values are numeric and map directly to the standardized numeric result in VSSTRESN.",
    "uncertainties": "Unit (e.g., mmHg) and test code must be supplied via other mappings; body position may be captured separately.",
    "review_required": false,
    "provenance": "model"
  },
  {
    "mapping_id": "VS104",
    "candidate_rank": 2,
    "source_dataset": "vs_raw",
    "source_variable": "SYS_BP",
    "target_domain": "VS",
    "target_variable": "VSORRES",
    "target_value": null,
    "mapping_type": "direct",
    "transform_id": "direct_map",
    "transform_parameters": "{}",
    "recommendation_score": 0.85,
    "reason": "Preserve the original systolic blood pressure reading as character data in VSORRES.",
    "uncertainties": "Potential requirement to convert numeric to character; unit and test code not addressed.",
    "review_required": false,
    "provenance": "model"
  },
  {
    "mapping_id": "VS104",
    "candidate_rank": 3,
    "source_dataset": "vs_raw",
    "source_variable": "SYS_BP",
    "target_domain": "VS",
    "target_variable": "VSSTRESC",
    "target_value": null,
    "mapping_type": "direct",
    "transform_id": "direct_map",
    "transform_parameters": "{}",
    "recommendation_score": 0.5,
    "reason": "If a character standardized result is required, VSSTRESC could store the value, though numeric storage in VSSTRESN is preferred.",
    "uncertainties": "Redundant for numeric results; may cause inconsistency if both are populated.",
    "review_required": true,
    "provenance": "model"
  },
  {
    "mapping_id": "VS105",
    "candidate_rank": 1,
    "source_dataset": "vs_raw",
    "source_variable": "DIA_BP",
    "target_domain": "VS",
    "target_variable": "VSSTRESN",
    "target_value": null,
    "mapping_type": "direct",
    "transform_id": "direct_map",
    "transform_parameters": "{}",
    "recommendation_score": 0.95,
    "reason": "Diastolic blood pressure is numeric and directly mapped to the standardized numeric result in VSSTRESN.",
    "uncertainties": "Unit (mmHg) and VSTESTCD need to be set; position may require mapping from SUBPOS.",
    "review_required": false,
    "provenance": "model"
  },
  {
    "mapping_id": "VS105",
    "candidate_rank": 2,
    "source_dataset": "vs_raw",
    "source_variable": "DIA_BP",
    "target_domain": "VS",
    "target_variable": "VSORRES",
    "target_value": null,
    "mapping_type": "direct",
    "transform_id": "direct_map",
    "transform_parameters": "{}",
    "recommendation_score": 0.85,
    "reason": "Original diastolic blood pressure value is retained in VSORRES as raw data.",
    "uncertainties": "Need to ensure character representation; unit and test code are separate.",
    "review_required": false,
    "provenance": "model"
  },
  {
    "mapping_id": "VS105",
    "candidate_rank": 3,
    "source_dataset": "vs_raw",
    "source_variable": "DIA_BP",
    "target_domain": "VS",
    "target_variable": "VSSTRESC",
    "target_value": null,
    "mapping_type": "direct",
    "transform_id": "direct_map",
    "transform_parameters": "{}",
    "recommendation_score": 0.5,
    "reason": "Character standardized result may be provided as an alternative, but numeric VSSTRESN is standard.",
    "uncertainties": "Not typically needed for numeric findings; possible inconsistency.",
    "review_required": true,
    "provenance": "model"
  },
  {
    "mapping_id": "VS106",
    "candidate_rank": 1,
    "source_dataset": "vs_raw",
    "source_variable": "PULSE",
    "target_domain": "VS",
    "target_variable": "VSSTRESN",
    "target_value": null,
    "mapping_type": "direct",
    "transform_id": "direct_map",
    "transform_parameters": "{}",
    "recommendation_score": 0.95,
    "reason": "Pulse rate is numeric and maps directly to the standardized numeric result in VSSTRESN.",
    "uncertainties": "Unit (e.g., beats/min) and test code require separate mapping; position may be relevant.",
    "review_required": false,
    "provenance": "model"
  },
  {
    "mapping_id": "VS106",
    "candidate_rank": 2,
    "source_dataset": "vs_raw",
    "source_variable": "PULSE",
    "target_domain": "VS",
    "target_variable": "VSORRES",
    "target_value": null,
    "mapping_type": "direct",
    "transform_id": "direct_map",
    "transform_parameters": "{}",
    "recommendation_score": 0.85,
    "reason": "Original pulse rate is retained in VSORRES as raw data.",
    "uncertainties": "May need conversion to character; unit and test code not included.",
    "review_required": false,
    "provenance": "model"
  },
  {
    "mapping_id": "VS106",
    "candidate_rank": 3,
    "source_dataset": "vs_raw",
    "source_variable": "PULSE",
    "target_domain": "VS",
    "target_variable": "VSSTRESC",
    "target_value": null,
    "mapping_type": "direct",
    "transform_id": "direct_map",
    "transform_parameters": "{}",
    "recommendation_score": 0.5,
    "reason": "If a character standardized result is needed, VSSTRESC could be used, though numeric is preferred.",
    "uncertainties": "Redundant for numeric findings; potential inconsistency with VSSTRESN.",
    "review_required": true,
    "provenance": "model"
  }
]
