specification:
  name: TraceSDTM mapping specification
  version: 0.1.0
  status: draft
  standard: SDTMIG 3.4
  created_from: expert_template
  approval:
    reviewer: null
    approved_at: null
    review_workbook_sha256: null
domains:
  DM:
    source_file: dm_raw.csv
    mappings:
      - {mapping_id: DM001, source_variables: [STUDY], target_variable: STUDYID, mapping_type: direct, transform_id: direct_map, parameters: {}, include_in_recommendation: true, mapping_required: true}
      - {mapping_id: DM002, source_variables: [], target_variable: DOMAIN, mapping_type: constant, transform_id: assign_constant, parameters: {value: DM}, include_in_recommendation: false, mapping_required: true}
      - {mapping_id: DM003, source_variables: [STUDY, PATNUM], target_variable: USUBJID, mapping_type: combine, transform_id: derive_usubjid, parameters: {separator: '-'}, include_in_recommendation: true, mapping_required: true}
      - {mapping_id: DM004, source_variables: [PATNUM], target_variable: SUBJID, mapping_type: direct, transform_id: direct_map, parameters: {}, include_in_recommendation: true, mapping_required: true}
      - {mapping_id: DM005, source_variables: [FIRST_DOSE_DT], target_variable: RFSTDTC, mapping_type: date_conversion, transform_id: to_iso8601_date, parameters: {formats: [m/d/y, dd-mmm-yyyy, y-m-d]}, include_in_recommendation: true, mapping_required: true}
      - {mapping_id: DM006, source_variables: [IC_DT], target_variable: RFICDTC, mapping_type: date_conversion, transform_id: to_iso8601_date, parameters: {formats: [m/d/y, dd-mmm-yyyy, y-m-d]}, include_in_recommendation: true, mapping_required: true}
      - {mapping_id: DM017, source_variables: [PATNUM], target_variable: SITEID, mapping_type: custom, transform_id: custom_transform, parameters: {name: extract_siteid}, include_in_recommendation: true, mapping_required: true}
      - {mapping_id: DM007, source_variables: [IT.AGE], target_variable: AGE, mapping_type: direct, transform_id: direct_map, parameters: {}, include_in_recommendation: true, mapping_required: true}
      - {mapping_id: DM008, source_variables: [], target_variable: AGEU, mapping_type: constant, transform_id: assign_constant, parameters: {value: YEARS}, include_in_recommendation: false, mapping_required: true}
      - mapping_id: DM009
        source_variables: [IT.SEX]
        target_variable: SEX
        mapping_type: controlled_term
        transform_id: map_controlled_term
        parameters: {terms: {Female: F, Male: M, Unknown: U}}
        include_in_recommendation: true
        mapping_required: true
      - mapping_id: DM010
        source_variables: [IT.ETHNIC]
        target_variable: ETHNIC
        mapping_type: controlled_term
        transform_id: map_controlled_term
        parameters: {terms: {Hispanic or Latino: HISPANIC OR LATINO, Not Hispanic or Latino: NOT HISPANIC OR LATINO, Unknown: UNKNOWN, Not Reported: NOT REPORTED}}
        include_in_recommendation: true
        mapping_required: true
      - mapping_id: DM011
        source_variables: [IT.RACE]
        target_variable: RACE
        mapping_type: controlled_term
        transform_id: map_controlled_term
        parameters: {terms: {White: WHITE, Asian: ASIAN, Black or African American: BLACK OR AFRICAN AMERICAN, American Indian or Alaska Native: AMERICAN INDIAN OR ALASKA NATIVE, Multiple: MULTIPLE, Unknown: UNKNOWN}}
        include_in_recommendation: true
        mapping_required: true
      - {mapping_id: DM012, source_variables: [COUNTRY], target_variable: COUNTRY, mapping_type: direct, transform_id: direct_map, parameters: {}, include_in_recommendation: true, mapping_required: true}
      - {mapping_id: DM013, source_variables: [PLANNED_ARMCD], target_variable: ARMCD, mapping_type: direct, transform_id: direct_map, parameters: {}, include_in_recommendation: true, mapping_required: true}
      - {mapping_id: DM014, source_variables: [PLANNED_ARM], target_variable: ARM, mapping_type: direct, transform_id: direct_map, parameters: {}, include_in_recommendation: true, mapping_required: true}
      - {mapping_id: DM015, source_variables: [ACTUAL_ARMCD], target_variable: ACTARMCD, mapping_type: direct, transform_id: direct_map, parameters: {}, include_in_recommendation: true, mapping_required: true}
      - {mapping_id: DM016, source_variables: [ACTUAL_ARM], target_variable: ACTARM, mapping_type: direct, transform_id: direct_map, parameters: {}, include_in_recommendation: true, mapping_required: true}
  AE:
    source_file: ae_raw.csv
    mappings:
      - {mapping_id: AE001, source_variables: [STUDY], target_variable: STUDYID, mapping_type: direct, transform_id: direct_map, parameters: {}, include_in_recommendation: true, mapping_required: true}
      - {mapping_id: AE002, source_variables: [], target_variable: DOMAIN, mapping_type: constant, transform_id: assign_constant, parameters: {value: AE}, include_in_recommendation: false, mapping_required: true}
      - {mapping_id: AE003, source_variables: [STUDY, PATNUM], target_variable: USUBJID, mapping_type: combine, transform_id: derive_usubjid, parameters: {separator: '-'}, include_in_recommendation: true, mapping_required: true}
      - {mapping_id: AE004, source_variables: [], target_variable: AESEQ, mapping_type: custom, transform_id: derive_sequence, parameters: {record_variables: [STUDYID, USUBJID, AESTDTC, AETERM, AEDECOD, .SOURCE_ROW]}, include_in_recommendation: false, mapping_required: true}
      - {mapping_id: AE005, source_variables: [IT.AETERM], target_variable: AETERM, mapping_type: direct, transform_id: direct_map, parameters: {}, include_in_recommendation: true, mapping_required: true}
      - {mapping_id: AE006, source_variables: [AEDECOD], target_variable: AEDECOD, mapping_type: direct, transform_id: direct_map, parameters: {}, include_in_recommendation: true, mapping_required: true}
      - {mapping_id: AE007, source_variables: [AEBODSYS], target_variable: AEBODSYS, mapping_type: custom, transform_id: custom_transform, parameters: {name: uppercase}, include_in_recommendation: true, mapping_required: true}
      - mapping_id: AE008
        source_variables: [IT.AESEV]
        target_variable: AESEV
        mapping_type: controlled_term
        transform_id: map_controlled_term
        parameters: {terms: {Mild Adverse Event: MILD, Moderate Adverse Event: MODERATE, Severe Adverse Event: SEVERE}}
        include_in_recommendation: true
        mapping_required: true
      - mapping_id: AE009
        source_variables: [IT.AESER]
        target_variable: AESER
        mapping_type: controlled_term
        transform_id: map_controlled_term
        parameters: {terms: {'Yes': 'Y', 'No': 'N'}}
        include_in_recommendation: true
        mapping_required: true
      - mapping_id: AE010
        source_variables: [IT.AEREL]
        target_variable: AEREL
        mapping_type: controlled_term
        transform_id: map_controlled_term
        parameters: {terms: {Probably Related: PROBABLE, Possibly Related: POSSIBLE, Unlikely Related: UNLIKELY, Not Related: NOT RELATED}}
        include_in_recommendation: true
        mapping_required: true
      - mapping_id: AE011
        source_variables: [AEOUTCOME]
        target_variable: AEOUT
        mapping_type: controlled_term
        transform_id: map_controlled_term
        parameters: {terms: {Recovered/Resolved: RECOVERED/RESOLVED, Recovering/Resolving: RECOVERING/RESOLVING, Not Recovered/not Resolved: NOT RECOVERED/NOT RESOLVED, Fatal: FATAL, Unknown: UNKNOWN}}
        include_in_recommendation: true
        mapping_required: true
      - {mapping_id: AE012, source_variables: [IT.AESTDAT], target_variable: AESTDTC, mapping_type: date_conversion, transform_id: to_iso8601_date, parameters: {formats: [m/d/y, dd-mmm-yyyy, y-m-d]}, include_in_recommendation: true, mapping_required: true}
      - {mapping_id: AE013, source_variables: [IT.AEENDAT], target_variable: AEENDTC, mapping_type: date_conversion, transform_id: to_iso8601_date, parameters: {formats: [m/d/y, dd-mmm-yyyy, y-m-d]}, include_in_recommendation: true, mapping_required: true}
      - mapping_id: AE014
        source_variables: [IT.AESHOSP]
        target_variable: AESHOSP
        mapping_type: controlled_term
        transform_id: map_controlled_term
        parameters: {terms: {'Yes': 'Y', 'No': 'N'}}
        include_in_recommendation: true
        mapping_required: true
      - {mapping_id: AE015, source_variables: [IT.AEENDAT], target_variable: AEENRF, mapping_type: custom, transform_id: custom_transform, parameters: {name: ongoing_if_missing}, include_in_recommendation: true, mapping_required: true}
      - {mapping_id: AE016, source_variables: [IT.AESTDAT], target_variable: AESTDY, mapping_type: custom, transform_id: derive_study_day, parameters: {target_date: AESTDTC, reference_date: RFSTDTC}, include_in_recommendation: false, mapping_required: true}
      - {mapping_id: AE017, source_variables: [IT.AEENDAT], target_variable: AEENDY, mapping_type: custom, transform_id: derive_study_day, parameters: {target_date: AEENDTC, reference_date: RFSTDTC}, include_in_recommendation: false, mapping_required: true}
  VS:
    source_file: vs_raw.csv
    mappings:
      - {mapping_id: VS001, source_variables: [STUDY], target_variable: STUDYID, mapping_type: direct, transform_id: direct_map, parameters: {}, include_in_recommendation: true, mapping_required: true}
      - {mapping_id: VS002, source_variables: [], target_variable: DOMAIN, mapping_type: constant, transform_id: assign_constant, parameters: {value: VS}, include_in_recommendation: false, mapping_required: true}
      - {mapping_id: VS003, source_variables: [STUDY, PATNUM], target_variable: USUBJID, mapping_type: combine, transform_id: derive_usubjid, parameters: {separator: '-'}, include_in_recommendation: true, mapping_required: true}
      - {mapping_id: VS004, source_variables: [], target_variable: VSSEQ, mapping_type: custom, transform_id: derive_sequence, parameters: {record_variables: [STUDYID, USUBJID, VSDTC, VSTESTCD, VSPOS, VISITNUM, .SOURCE_ROW]}, include_in_recommendation: false, mapping_required: true}
      - {mapping_id: VS005, source_variables: [VTLD], target_variable: VSDTC, mapping_type: date_conversion, transform_id: to_iso8601_date, parameters: {formats: [dd-mmm-yyyy, m/d/y, y-m-d]}, include_in_recommendation: true, mapping_required: true}
      - {mapping_id: VS006, source_variables: [SUBPOS], target_variable: VSPOS, mapping_type: custom, transform_id: custom_transform, parameters: {name: uppercase}, include_in_recommendation: true, mapping_required: true}
      - {mapping_id: VS007, source_variables: [INSTANCE], target_variable: VISIT, mapping_type: direct, transform_id: direct_map, parameters: {}, include_in_recommendation: true, mapping_required: true}
      - {mapping_id: VS008, source_variables: [INSTANCE], target_variable: VISITNUM, mapping_type: custom, transform_id: derive_visitnum, parameters: {terms: {Screening 1: -1, Week 2: 2}}, include_in_recommendation: true, mapping_required: true}
      - {mapping_id: VS009, source_variables: [VTLD], target_variable: VSDY, mapping_type: custom, transform_id: derive_study_day, parameters: {target_date: VSDTC, reference_date: RFSTDTC}, include_in_recommendation: false, mapping_required: true}
    transpose_mappings:
      - {mapping_id: VS101, source_variables: [IT.HEIGHT_VSORRES], target_variable: VSTESTCD, target_value: HEIGHT, target_test: Height, unit: cm, mapping_type: transpose, transform_id: transpose_findings, parameters: {}, include_in_recommendation: true, mapping_required: true}
      - {mapping_id: VS102, source_variables: [IT.WEIGHT], target_variable: VSTESTCD, target_value: WEIGHT, target_test: Weight, unit: kg, mapping_type: transpose, transform_id: transpose_findings, parameters: {}, include_in_recommendation: true, mapping_required: true}
      - {mapping_id: VS103, source_variables: [IT.TEMP], target_variable: VSTESTCD, target_value: TEMP, target_test: Temperature, unit: C, mapping_type: transpose, transform_id: transpose_findings, parameters: {}, include_in_recommendation: true, mapping_required: true}
      - {mapping_id: VS104, source_variables: [SYS_BP], target_variable: VSTESTCD, target_value: SYSBP, target_test: Systolic Blood Pressure, unit: mmHg, mapping_type: transpose, transform_id: transpose_findings, parameters: {}, include_in_recommendation: true, mapping_required: true}
      - {mapping_id: VS105, source_variables: [DIA_BP], target_variable: VSTESTCD, target_value: DIABP, target_test: Diastolic Blood Pressure, unit: mmHg, mapping_type: transpose, transform_id: transpose_findings, parameters: {}, include_in_recommendation: true, mapping_required: true}
      - {mapping_id: VS106, source_variables: [PULSE], target_variable: VSTESTCD, target_value: PULSE, target_test: Pulse Rate, unit: beats/min, mapping_type: transpose, transform_id: transpose_findings, parameters: {}, include_in_recommendation: true, mapping_required: true}
